aX,aY,aZ,gX,gY,gZ
-6.92,-2.21,0.70,29.54,29.54,29.54
-6.28,-1.20,0.79,25.90,24.64,24.64
-5.70,-0.24,0.91,21.49,21.28,21.28
-5.69,0.04,1.28,19.04,19.04,19.04
-5.88,0.63,1.33,20.16,20.86,21.28
-5.59,1.96,1.45,22.54,22.40,22.40
-6.11,2.39,2.03,16.80,16.80,16.10
-7.93,2.18,2.46,12.39,12.39,11.97
-9.86,2.28,2.76,10.15,10.15,9.94
-11.29,2.72,2.89,9.52,9.52,9.52
-11.94,4.52,3.01,3.43,3.43,3.43
-11.74,6.15,2.90,-7.07,-7.07,-7.07
-11.33,6.92,2.78,-15.82,-17.08,-17.08
-11.08,6.67,2.61,-22.68,-22.68,-22.33
-10.98,5.92,2.45,-19.81,-19.81,-17.08
-10.42,5.40,2.35,-11.34,-11.34,-7.84
-7.45,5.10,2.34,0.35,0.35,0.91
-5.83,4.82,2.49,2.10,2.10,3.01
-3.53,4.46,2.53,4.97,4.97,4.97
-1.90,4.19,2.72,6.79,7.35,7.35
0.89,4.38,3.07,14.42,14.42,14.42
2.04,4.88,2.98,16.03,16.03,15.75
3.16,5.42,2.98,13.30,13.30,10.92
4.56,6.21,2.92,3.99,3.99,2.73
5.38,6.60,2.91,-5.32,-5.32,-6.37
5.93,6.74,2.79,-13.23,-13.23,-13.23
6.36,6.72,2.63,-17.85,-17.85,-17.85
6.29,6.70,2.59,-17.85,-17.85,-17.85
6.05,6.81,2.56,-13.86,-13.86,-13.86
5.65,7.18,2.50,-8.33,-8.33,-7.70
4.92,7.56,2.61,-3.99,-3.99,-3.99
4.10,8.07,2.76,-3.64,-3.85,-3.85
3.14,8.35,2.92,-4.69,-5.18,-5.18
2.07,8.27,3.00,-5.39,-5.18,-5.18
1.04,8.16,3.10,-4.13,-4.13,-3.71
0.47,8.14,3.06,-1.40,-1.40,-1.40
-0.25,8.03,3.12,1.75,1.75,1.89
-0.76,8.10,3.41,1.40,1.40,1.19
-1.32,7.81,3.53,0.91,0.91,0.91
-1.57,7.69,3.24,4.20,4.20,4.20
-1.40,7.93,3.04,5.74,5.74,5.74
-1.18,8.59,3.14,3.15,3.15,3.15
-1.69,8.47,3.32,-3.50,-4.13,-4.13
-2.58,8.11,3.40,-7.70,-7.98,-7.98
-3.13,7.73,3.31,-9.52,-10.36,-10.36
-3.23,7.63,3.11,-11.27,-11.55,-11.83
-3.74,7.46,3.07,-13.16,-13.58,-13.58
-4.08,7.18,3.13,-14.91,-14.91,-14.84
-5.67,6.47,3.11,-11.06,-11.06,-10.78
-5.67,6.81,3.06,-8.96,-8.61,-8.47
-5.58,7.08,3.07,-9.31,-9.31,-9.31
-5.12,7.17,3.00,-12.18,-12.53,-12.53
-5.03,6.96,3.08,-14.49,-15.82,-15.82
-5.33,6.21,3.05,-17.50,-17.43,-17.64
-5.58,5.25,3.05,-16.66,-16.66,-16.52
-5.84,4.93,3.11,-15.54,-15.54,-15.33
-6.93,4.28,3.06,-15.96,-15.96,-16.24
-7.16,3.94,2.94,-16.45,-16.31,-16.31
-7.46,3.36,2.77,-15.47,-15.47,-15.33
-7.49,3.06,2.58,-13.51,-12.88,-12.39
-7.50,2.96,2.50,-11.20,-11.20,-10.92
-7.35,2.72,2.51,-11.48,-11.48,-11.62
-7.79,1.90,2.56,-13.44,-13.44,-14.21
-8.00,1.12,2.58,-14.28,-14.28,-14.07
-8.27,0.12,2.53,-11.62,-11.62,-11.13
-8.30,-0.54,2.38,-8.33,-8.33,-8.33
-7.95,-0.75,2.34,-6.44,-6.09,-6.09
-7.16,-1.00,2.20,-6.09,-6.09,-6.58
-6.87,-2.32,2.06,-8.61,-8.61,-8.61
-6.67,-3.89,1.98,-9.24,-9.31,-9.31
-6.77,-5.57,1.82,-9.94,-10.08,-10.08
-6.63,-6.87,1.50,-9.59,-9.52,-9.52
-6.91,-8.83,1.45,-11.90,-11.90,-12.60
-7.03,-10.38,1.23,-17.01,-17.01,-17.36
-7.19,-13.38,1.14,-18.20,-18.20,-0.28
-7.08,-12.76,0.83,-11.20,-11.20,-11.20
-7.04,-12.40,0.59,-1.19,-1.19,-1.19
-7.21,-11.57,0.40,11.41,11.41,11.41
-7.37,-11.04,0.43,17.71,19.46,19.46
-7.94,-12.21,0.09,23.24,24.43,24.43
-8.34,-12.52,0.04,28.07,29.19,29.19
-8.60,-12.41,0.45,32.20,32.55,32.55
-8.95,-11.79,1.27,30.24,28.42,28.42
-9.35,-11.54,2.39,17.64,17.64,15.96
-9.14,-11.19,2.96,3.43,3.43,3.43
-8.46,-11.19,3.27,-2.80,-2.80,-2.80
-7.64,-11.48,3.06,-3.15,-3.15,-3.15
-6.64,-11.73,2.12,4.69,6.09,6.09
-5.54,-11.72,1.52,13.30,16.10,17.57
-4.49,-11.01,0.87,24.57,25.27,25.27
-3.86,-10.00,0.61,27.86,27.86,27.79
-3.16,-9.26,0.68,24.57,24.57,23.59
-2.39,-9.31,0.82,14.98,14.98,14.98
-1.72,-9.56,0.81,7.98,7.98,7.98
-1.26,-10.03,0.80,3.64,3.64,2.38
-0.89,-10.01,0.90,-1.75,-1.75,-1.75
-0.76,-9.66,1.09,-5.60,-5.60,-5.95
-0.77,-9.23,1.40,-8.96,-9.45,-9.45
-0.81,-8.87,1.67,-12.11,-12.46,-12.46
-0.84,-8.67,1.80,-14.91,-15.12,-15.12
-0.96,-8.60,1.79,-16.03,-15.96,-16.10
-1.09,-8.66,1.85,-15.54,-15.54,-15.54
-1.19,-8.63,1.96,-14.77,-14.63,-14.63
-1.28,-8.87,2.05,-13.79,-13.58,-13.58
-1.32,-9.17,1.98,-11.83,-11.55,-11.55
-1.31,-9.31,1.90,-9.45,-9.45,-9.45
-1.30,-9.36,1.96,-5.88,-5.88,-5.39
-1.28,-9.57,1.98,-3.36,-2.66,-2.10
-1.21,-9.71,1.80,1.26,1.26,1.26
-1.23,-9.71,1.65,5.46,5.74,5.74
-1.29,-9.75,1.63,7.35,7.98,7.98
-1.36,-9.74,1.45,8.89,8.82,8.82
-1.48,-9.59,1.42,8.82,8.75,8.75
-1.55,-9.40,1.51,7.21,7.21,7.07
-1.65,-9.38,1.56,4.69,4.69,4.27
-1.73,-9.54,1.62,1.96,0.98,0.49
-1.80,-9.71,1.66,-2.10,-2.10,-3.29
-1.95,-9.89,1.61,-5.32,-5.32,-5.60
-2.24,-10.08,1.58,-6.58,-6.72,-6.72
-2.36,-10.21,1.58,-7.14,-7.14,-7.14
-2.44,-10.33,1.51,-6.58,-6.44,-6.44
-2.47,-10.27,1.45,-4.55,-4.55,-4.34
-2.46,-10.29,1.45,-3.36,-2.94,-2.73
-2.37,-10.22,1.40,-1.68,-1.68,-0.98
-2.12,-9.98,1.43,0.63,0.63,0.70
-1.90,-9.90,1.47,0.07,0.07,0.07
-1.74,-9.83,1.50,-1.12,-1.12,-1.33
-1.52,-9.74,1.49,-2.03,-2.03,-2.03
-1.35,-9.70,1.54,-1.89,-1.89,-1.89
-1.22,-9.60,1.56,-1.61,-1.61,-1.61
-1.13,-9.56,1.56,-1.26,-1.26,-1.26
-1.03,-9.53,1.54,-1.19,-1.19,-1.19
-0.97,-9.64,1.52,-1.40,-1.40,-1.40
-0.93,-9.67,1.48,-1.40,-1.40,-1.40
-0.88,-9.57,1.47,-1.26,-1.26,-1.26
-0.87,-9.52,1.50,-1.19,-1.26,-1.26
-1.07,-9.35,1.51,-1.54,-1.54,-1.54
-1.12,-9.44,1.47,-0.21,-0.21,0.07
-1.22,-9.55,1.48,1.26,1.26,1.40
-1.35,-9.64,1.48,1.82,2.03,2.03
-1.51,-9.85,1.34,2.38,2.38,2.45
-1.71,-9.85,1.35,3.01,3.22,3.22
-1.91,-9.83,1.40,3.64,3.78,3.78
-2.10,-9.81,1.53,3.29,3.29,3.29
-2.22,-9.84,1.62,3.01,2.87,2.87
-2.30,-9.73,1.69,2.94,2.94,2.94
-2.36,-9.66,1.79,3.01,3.01,3.01
-2.37,-9.71,1.81,2.52,2.52,2.52
-2.43,-9.84,1.84,1.89,1.89,1.89
-2.44,-9.96,1.73,2.45,2.45,2.45
-2.42,-9.93,1.73,3.29,3.36,3.36
-2.47,-9.88,1.78,3.57,3.57,3.64
-2.43,-9.86,1.79,3.36,3.36,3.43
-2.43,-9.82,1.79,3.85,3.85,3.85
-2.39,-9.71,1.76,4.97,4.97,4.97
-2.40,-9.58,1.77,5.18,5.18,5.18
-2.40,-9.50,1.79,3.64,3.64,3.64
-2.34,-9.51,1.85,1.89,1.89,1.89
-2.27,-9.54,1.79,1.05,1.05,1.05
-2.20,-9.49,1.73,1.40,1.40,1.54
-2.20,-9.39,1.70,2.45,2.45,2.45
-2.27,-9.44,1.68,3.01,3.01,3.01
-2.59,-9.72,1.70,2.73,2.24,2.24
-3.24,-10.10,1.81,1.54,1.54,1.54
-4.00,-10.36,1.84,2.31,2.52,2.52
-4.75,-10.33,1.91,4.34,5.53,5.53
-5.68,-10.35,1.89,6.86,7.07,7.14
-6.63,-10.94,1.94,5.67,5.67,5.25
-7.44,-11.41,1.88,2.38,2.38,2.38
-9.04,-10.87,1.99,4.34,3.85,3.85
-9.45,-10.38,2.02,-1.96,-2.73,-2.73
-9.57,-10.40,1.91,-6.02,-7.07,-7.07
-9.48,-10.59,1.78,-6.72,-6.72,-6.72
-9.34,-10.72,1.56,-3.36,-1.19,-1.19
-9.32,-10.63,1.32,2.66,3.43,5.04
-8.94,-9.66,1.20,10.43,10.43,10.43
-8.44,-8.84,1.04,15.26,15.26,15.68
-7.88,-7.64,0.97,17.43,18.06,18.41
-6.80,-6.45,0.91,20.23,20.23,20.30
-5.87,-5.86,0.89,22.19,22.19,22.19
-5.00,-4.97,0.91,24.01,24.01,24.01
-4.02,-4.10,0.90,26.53,27.09,27.37
-3.10,-3.17,0.76,29.33,29.33,29.33
-2.65,-2.74,0.77,31.08,31.29,31.29
-2.54,-1.71,0.93,32.55,32.55,32.55
-2.71,-0.35,1.07,30.31,29.75,29.75
-2.84,0.48,1.31,24.36,23.38,23.38
-3.31,1.15,1.52,16.38,15.40,15.40
-4.16,1.06,1.82,7.56,6.58,6.58
-5.36,1.24,2.02,0.56,-0.07,-0.07
-6.13,1.39,2.03,-2.87,-3.36,-3.36
-6.66,0.63,2.14,-8.54,-8.54,-9.24
-7.44,0.24,2.20,-11.41,-11.48,-11.48
-7.84,-0.65,2.08,-9.17,-9.17,-8.40
-8.47,-1.09,2.00,-3.22,-3.22,-3.22
-9.10,-1.55,2.00,5.88,5.88,7.07
-9.80,-1.29,2.17,11.76,11.76,11.76
-10.24,-0.87,2.12,10.78,10.78,10.78
-10.82,-0.90,2.16,8.96,8.96,8.96
-11.65,-0.73,2.22,6.72,6.72,6.58
-12.43,-0.37,2.17,5.67,5.46,5.32
-13.18,-0.37,1.99,4.06,4.06,3.43
-13.76,-0.34,1.97,1.89,1.89,1.89
-14.09,-0.18,1.89,3.01,3.01,3.50
-14.02,0.22,1.91,5.53,6.30,6.58
-13.70,1.06,1.89,6.16,6.16,5.74
-13.17,1.43,1.87,2.17,2.17,1.47
-12.62,1.44,1.91,-1.33,-2.17,-2.45
-11.90,1.22,1.94,-4.55,-4.55,-4.55
-11.01,1.19,1.90,-5.60,-5.60,-5.46
-10.19,0.92,1.76,-4.55,-3.85,-3.15
-9.04,0.92,1.65,-0.14,-0.14,-0.14
-8.14,1.27,1.70,2.24,2.24,2.24
-7.25,1.63,1.67,2.66,2.73,2.73
-5.15,1.85,1.39,10.22,10.22,10.22
-5.00,1.83,1.34,13.02,13.51,13.79
-4.97,1.80,1.40,13.93,13.93,13.44
-5.25,1.76,1.46,11.48,11.48,11.06
-5.68,1.58,1.50,8.89,8.89,8.89
-6.17,1.45,1.54,8.75,8.89,8.89
-6.36,1.65,1.72,8.82,8.82,8.82
-6.78,1.85,1.84,5.39,5.39,5.39
-7.36,1.41,1.83,1.33,1.19,1.19
-8.02,0.81,1.77,2.45,2.45,2.87
-8.48,0.64,1.75,6.72,7.28,7.28
-8.96,0.61,1.69,10.64,11.06,11.06
-9.30,0.93,1.67,11.55,11.55,11.62
-9.38,1.45,1.57,8.05,8.05,8.05
-9.52,1.56,1.57,3.50,1.96,1.96
-9.79,1.24,1.47,-2.59,-2.59,-3.08
-10.12,0.74,1.33,-4.97,-4.97,-4.97
-10.50,0.32,1.19,-3.71,-3.01,-3.01
-10.37,0.10,1.20,0.49,0.49,0.49
-10.25,0.07,1.14,3.99,3.99,3.99
-9.78,0.04,1.06,6.44,7.14,7.14
-9.37,-0.02,0.94,9.03,9.38,9.38
-8.68,-0.14,1.10,10.01,10.01,10.01
-8.38,-0.45,1.13,6.86,6.86,6.86
-8.02,-0.75,1.00,3.01,1.68,1.68
-7.82,-1.53,0.93,-2.66,-3.99,-3.99
-7.63,-3.46,0.89,-11.34,-11.34,-11.34
-7.66,-4.76,1.08,-14.28,-14.28,-14.28
-7.81,-5.57,1.12,-16.10,-16.10,-16.10
-7.60,-6.44,1.19,-17.50,-17.57,-17.57
-7.48,-6.97,1.24,-18.62,-18.62,-18.76
-7.46,-7.94,1.31,-18.41,-17.78,-17.57
-7.72,-9.41,1.28,-12.60,-12.60,-12.60
-7.67,-9.90,1.43,-3.85,-3.01,-3.01
-8.02,-9.76,1.67,-0.77,-0.84,-0.84
-8.62,-9.30,1.92,-4.13,-4.13,-4.13
-8.98,-9.20,1.91,-10.71,-11.13,-11.13
-9.50,-9.53,2.28,-12.39,-12.39,-12.39
-9.92,-9.77,2.89,-10.99,-10.99,-10.92
-10.31,-9.72,3.51,-9.73,-9.73,-9.73
-10.11,-10.23,3.66,-5.39,-5.39,-5.39
-9.76,-10.29,3.63,4.97,4.97,4.97
-9.25,-9.98,3.48,10.78,12.88,12.88
-8.26,-9.65,3.11,18.48,21.63,21.63
-7.21,-9.71,2.64,26.95,27.86,29.82
-6.18,-9.72,2.03,33.88,34.44,34.44
-5.35,-9.50,1.31,37.45,37.73,37.73
-4.67,-9.50,0.72,38.50,38.64,38.64
-4.08,-9.55,0.45,39.27,39.62,39.62
-3.70,-9.55,0.22,39.83,39.48,39.48
-3.56,-9.19,0.13,36.82,36.82,36.82
-3.64,-8.70,0.03,29.40,28.35,28.35
-3.70,-8.34,-0.01,20.93,19.81,19.81
-3.80,-8.20,-0.02,12.88,12.88,12.88
-3.95,-7.97,0.24,2.24,2.24,0.91
-4.17,-8.08,0.37,-11.20,-11.20,-11.20
-4.27,-8.18,0.35,-17.15,-18.69,-18.69
-4.33,-8.76,0.45,-20.79,-20.79,-21.21
-4.41,-9.14,0.55,-20.58,-20.58,-20.58
-4.44,-9.27,0.76,-19.39,-19.39,-19.39
-4.50,-9.27,0.92,-18.90,-18.90,-18.90
-4.43,-9.24,1.17,-19.11,-19.11,-19.11
-4.30,-9.06,1.43,-20.44,-20.72,-20.72
-4.19,-8.95,1.64,-22.47,-23.17,-23.45
-4.05,-9.01,1.87,-24.92,-24.92,-25.06
-3.89,-8.97,2.02,-25.06,-25.06,-25.06
-3.69,-9.00,2.21,-24.78,-24.57,-24.43
-3.36,-9.11,2.46,-23.73,-23.73,-23.73
-3.08,-9.21,2.63,-22.26,-22.26,-22.26
-2.85,-9.23,2.65,-20.79,-20.44,-20.30
-2.70,-9.19,2.75,-17.78,-17.78,-17.78
-2.57,-9.21,2.86,-14.84,-14.84,-14.84
-2.37,-9.19,2.95,-11.69,-11.20,-11.20
-2.24,-9.16,2.96,-7.00,-7.00,-7.00
-2.12,-9.18,2.87,-2.87,-2.87,-2.87
-2.11,-9.12,2.75,1.96,1.96,2.45
-2.22,-9.11,2.60,6.16,7.07,7.07
-2.37,-9.07,2.42,9.59,10.29,10.29
-2.55,-9.10,2.13,12.88,12.88,12.88
-3.30,-8.75,1.57,15.19,15.19,14.91
-3.57,-8.76,1.42,13.58,13.58,13.37
-3.77,-8.71,1.21,11.62,11.62,11.62
-4.01,-8.80,1.06,10.29,10.29,10.29
-4.24,-8.81,0.97,9.52,9.31,9.31
-4.42,-8.71,0.96,8.26,8.26,7.84
-4.49,-8.69,0.94,7.00,7.00,6.72
-4.56,-8.69,0.97,5.53,5.53,5.53
-4.58,-8.71,1.15,3.36,3.36,3.36
-4.54,-8.69,1.25,1.75,1.47,1.47
-4.46,-8.64,1.47,-0.70,-0.70,-0.91
-4.37,-8.84,1.59,-1.89,-2.31,-2.45
-4.36,-9.13,1.74,-3.15,-3.15,-3.29
-4.38,-9.15,1.87,-3.36,-3.36,-3.36
-4.38,-9.20,2.03,-3.22,-3.22,-3.22
-4.34,-9.14,2.21,-3.01,-3.01,-3.01
-4.30,-9.23,2.21,-2.45,-2.45,-2.45
-4.23,-9.31,2.28,-0.42,-0.14,-0.14
-4.13,-9.27,2.34,1.68,2.45,3.01
-4.05,-9.24,2.40,6.09,6.09,6.09
-3.94,-9.12,2.45,9.66,10.08,10.08
-3.84,-9.03,2.53,11.55,11.76,12.39
-3.71,-9.05,2.55,13.58,13.86,14.28
-3.53,-8.88,2.44,16.03,16.24,16.24
-3.57,-8.88,2.44,16.73,16.73,16.73
-3.62,-9.12,2.49,18.97,19.32,19.32
-3.85,-9.19,2.58,21.63,21.98,21.98
-4.13,-9.11,2.73,23.03,23.45,23.45
-4.39,-8.97,3.01,23.87,23.87,24.01
-4.70,-8.71,3.16,24.99,25.27,25.27
-5.12,-8.69,3.28,27.16,27.16,27.16
-5.62,-8.83,3.23,30.66,30.66,30.66
-6.24,-8.88,3.27,33.11,34.16,34.16
-7.12,-8.95,3.30,37.80,37.80,37.80
-7.79,-8.91,3.27,41.65,42.21,42.21
-8.32,-8.63,2.99,45.85,45.85,46.27
-8.79,-8.02,2.71,48.86,48.86,48.86
-9.38,-7.59,2.57,51.52,51.52,51.52
-9.81,-7.09,2.46,52.78,52.78,52.78
-10.26,-6.63,2.38,51.59,51.59,51.59
-10.64,-6.69,2.47,49.35,49.07,48.65
-10.85,-6.63,2.45,48.51,48.51,48.51
-10.83,-6.10,2.53,49.07,49.00,49.00
-10.83,-5.69,2.77,48.09,47.81,47.81
-10.80,-5.06,3.11,44.66,44.66,44.31
-10.62,-4.80,3.34,41.16,41.16,40.60
-10.69,-4.60,3.45,38.08,38.08,38.08
-10.75,-4.78,3.33,38.92,38.92,39.55
-10.42,-3.65,3.31,48.72,48.72,48.72
-10.29,-2.63,3.18,47.88,47.88,47.88
-9.95,-1.82,2.90,42.98,42.98,42.98
-9.72,-1.20,2.70,39.97,38.92,38.92
-9.12,0.60,2.19,27.02,26.67,26.67
-8.89,1.00,2.14,24.64,24.64,24.43
-8.32,1.81,2.21,22.82,21.77,21.07
-7.54,2.76,2.41,17.08,17.08,16.03
-7.02,3.37,2.45,7.56,7.56,6.65
-6.82,3.40,2.46,3.36,3.36,3.36
-6.67,3.42,2.47,2.66,2.66,2.66
-6.70,3.70,2.57,3.01,2.87,2.87
-6.66,4.32,2.68,1.89,1.47,1.47
-6.26,4.80,2.64,0.21,0.14,-0.49
-5.69,5.15,2.67,-1.47,-1.61,-1.61
-5.27,5.47,2.54,-2.10,-2.31,-2.31
-4.54,5.90,2.54,-3.22,-3.57,-3.57
-3.70,6.53,2.57,-5.60,-5.88,-5.88
-3.57,6.77,2.49,-7.77,-7.77,-7.91
-3.27,6.96,2.46,-7.14,-6.93,-6.72
-2.94,7.09,2.43,-5.88,-5.88,-5.46
-2.97,7.37,2.60,-5.53,-5.53,-5.53
-2.57,7.84,2.76,-7.98,-9.17,-9.17
-2.07,8.39,3.09,-16.03,-16.03,-17.29
-1.70,8.71,3.42,-27.30,-28.63,-28.63
-1.18,7.66,4.09,-43.54,-43.54,-43.40
-0.55,7.40,4.53,-40.88,-40.88,-40.88
0.22,6.99,4.74,-37.87,-36.40,-36.40
0.87,6.52,5.09,-30.59,-28.21,-28.21
1.18,6.03,5.18,-19.81,-19.81,-16.80
1.67,5.97,5.40,-8.12,-8.12,-8.12
2.24,6.31,5.57,-0.35,-0.35,17.57
2.67,6.81,5.74,0.70,0.70,0.70
3.03,7.19,5.72,-1.68,-2.73,-2.73
3.05,7.17,5.70,-5.32,-5.88,-5.88
2.97,6.75,5.49,-5.81,-5.81,-5.46
2.84,6.54,5.38,-3.15,-3.15,-2.73
2.60,6.54,5.33,1.12,1.12,1.12
2.02,6.54,5.28,8.26,8.26,8.26
1.43,6.61,5.17,14.56,14.56,14.56
0.98,6.90,5.12,18.06,18.06,18.06
0.70,7.49,5.04,19.39,19.39,19.39
0.69,7.87,5.09,16.66,16.66,16.66
0.46,8.03,4.88,13.09,13.09,13.09
0.37,7.92,4.74,11.27,10.92,10.92
0.42,7.67,4.48,10.15,9.94,9.94
0.78,7.51,4.24,8.05,7.70,7.70
1.14,7.54,4.23,1.33,1.33,0.49
1.31,7.40,4.16,-6.65,-6.65,-7.63
1.23,6.84,4.03,-12.11,-12.11,-13.86
0.68,5.70,3.67,-14.42,-14.42,-14.42
0.35,4.80,3.39,-9.45,-9.45,-9.45
0.21,4.39,3.20,-3.85,-3.85,-3.85
0.23,4.44,3.08,-4.62,-4.62,-4.62
0.21,4.38,3.01,-10.29,-11.34,-11.34
0.14,4.00,2.79,-21.00,-21.00,-21.00
-0.05,3.46,2.48,-33.11,-33.11,-33.11
-0.43,2.66,2.26,-43.12,-46.69,-46.69
-0.92,1.63,2.12,-57.40,-57.40,-60.83
-1.30,0.25,1.73,-69.44,-69.44,-69.44
-1.52,-1.26,1.26,-80.85,-80.85,-80.85
-1.62,-2.12,0.88,-90.65,-92.47,-92.47
-1.84,-3.53,0.67,-103.25,-110.88,-110.88
-1.93,-5.87,0.09,-130.83,-130.83,-130.83
-1.73,-9.22,-0.84,-163.31,-163.31,-163.3
-1.50,-15.31,-2.08,-188.51,-188.51,-188.
-1.14,-23.30,-3.96,-220.22,-220.22,-220.
-1.00,-30.73,-4.15,-266.70,-266.70,-266.
-1.25,-32.15,-3.16,-285.32,-285.32,-285.
-2.73,-24.91,-3.21,-271.46,-271.46,-261.
-2.90,-20.65,-2.54,-227.29,-218.26,-218.
1.11,-19.92,-0.88,-117.32,-106.68,-106.6
3.20,-17.81,1.00,-61.53,-54.60,-42.49
3.51,-15.93,1.67,-21.56,-21.56,-21.21
3.11,-14.53,2.79,-40.60,-40.60,-40.60
1.69,-13.42,5.24,-83.30,-90.72,-106.19
-0.64,-13.24,7.26,-146.30,-153.93,-153.9
-1.87,-14.13,6.63,-193.34,-193.34,-193.3
-1.65,-16.28,4.50,-175.91,-170.73,-170.7
-1.22,-18.23,4.78,-140.14,-119.98,-119.9
-2.15,-18.84,5.44,-70.98,-70.98,-70.98
-3.37,-17.78,4.86,-4.41,3.01,3.01
-4.25,-15.95,4.19,37.45,54.88,54.88
-4.77,-13.37,3.56,76.58,79.87,85.19
-4.78,-10.93,2.72,95.48,95.48,96.04
-3.71,-10.50,1.22,95.34,95.06,95.06
-3.26,-11.15,0.49,96.11,96.11,96.11
-2.86,-11.99,-0.07,100.52,100.52,100.52
-2.53,-12.91,-0.42,104.09,104.09,104.09
-2.34,-13.20,-0.78,107.31,107.66,108.29
-2.19,-12.86,-0.84,109.62,109.83,109.83
-2.07,-12.18,-0.81,109.06,109.06,108.78
-2.10,-11.78,-0.74,104.93,104.09,104.09
-2.31,-11.30,-0.65,96.25,94.85,94.85
-2.53,-10.59,-0.49,85.68,85.68,85.68
-2.79,-10.20,-0.30,72.17,70.14,65.87
-2.97,-10.32,-0.05,55.44,53.41,49.42
-3.23,-10.88,0.09,37.66,37.66,36.26
-3.59,-11.28,0.12,28.70,28.70,28.70
-3.68,-11.63,0.15,27.72,28.00,28.00
-3.71,-11.32,0.23,29.33,29.33,29.33
-3.86,-10.71,0.68,28.77,28.77,28.42
-4.03,-10.01,0.95,26.81,25.83,25.48
-4.06,-9.47,1.50,23.10,21.98,21.42
-4.14,-8.76,1.74,18.13,16.52,15.75
-4.27,-8.09,2.00,11.27,11.27,8.47
-4.37,-7.44,1.99,3.01,3.01,-0.70
-4.64,-6.82,1.87,-7.42,-7.42,-8.89
-4.85,-4.93,1.72,-21.63,-21.63,-23.03
-5.10,-5.60,1.90,-30.24,-30.24,-34.65
-5.19,-5.20,2.07,-41.51,-41.51,-41.51
-5.12,-5.33,1.53,-51.87,-51.87,-51.87
-5.09,-5.34,1.56,-56.63,-58.24,-58.24
-5.15,-4.90,1.45,-63.35,-63.35,-65.66
-5.34,-4.56,1.08,-72.45,-72.45,-72.45
-5.83,-4.03,1.44,-84.63,-84.63,-86.45
-6.14,-3.83,2.14,-103.39,-103.39,-103.39
-6.07,-4.60,2.05,-110.53,-111.44,-111.44
-5.30,-5.34,2.15,-108.43,-105.42,-105.42
3.29,-7.60,2.53,-84.91,-84.91,-80.50
0.11,-10.63,2.38,-30.24,-30.24,-30.24
2.88,-13.34,1.78,44.17,52.29,52.29
4.57,-13.70,1.55,89.25,105.91,105.91
4.61,-11.36,2.07,120.47,121.17,120.33
3.23,-6.75,3.11,96.25,90.79,90.79
0.17,-4.69,3.01,45.08,45.08,38.15
-3.30,-4.27,0.89,-39.41,-39.41,-42.70
-5.36,-5.89,-0.06,-56.07,-56.07,-56.07
-7.33,-6.94,-0.28,-44.80,-44.80,-44.80
-9.21,-7.61,0.12,-25.97,-18.83,-18.83
-11.27,-7.08,1.05,2.10,2.10,8.47
-13.32,-6.84,1.41,31.22,31.22,31.22
-14.16,-6.47,1.63,49.14,49.14,49.14
-14.34,-6.42,1.34,60.27,60.27,61.32
-13.94,-6.28,0.95,65.38,65.38,65.38
-13.07,-5.76,0.82,61.60,61.60,61.60
-12.25,-5.43,0.80,45.29,45.29,45.29
-11.30,-5.47,0.81,33.32,33.32,33.32
-10.07,-5.91,0.61,19.95,19.95,17.08
-8.84,-5.94,0.73,8.19,8.19,8.19
-7.75,-5.94,1.31,-4.41,-5.60,-5.60
-6.81,-6.14,1.54,-11.13,-11.13,-11.76
-6.06,-6.56,1.80,-12.95,-12.95,-12.95
-5.56,-7.03,2.00,-9.45,-8.61,-8.61
-5.19,-7.34,2.21,-2.38,-2.38,-2.38
-5.07,-7.53,2.22,4.62,4.62,4.62
-5.17,-7.45,2.15,6.58,6.72,6.72
-5.35,-7.15,2.12,6.02,5.18,4.76
-5.57,-6.96,2.12,0.70,0.70,0.70
-5.83,-6.87,2.19,-6.72,-6.72,-6.72
-6.15,-6.77,2.03,-18.97,-18.97,-20.51
-6.36,-7.06,1.97,-27.02,-29.05,-29.82
-6.47,-7.99,1.87,-31.57,-31.57,-31.57
-6.62,-9.03,1.85,-27.09,-27.09,-26.18
-6.67,-9.32,1.79,-17.50,-17.50,-16.03
-6.72,-9.55,1.75,-7.84,-7.84,-7.84
-6.73,-9.26,1.82,2.94,2.94,2.94
-6.62,-8.55,1.89,13.16,13.93,13.93
-6.47,-7.83,2.01,17.15,17.15,17.43
-6.30,-7.34,2.21,16.24,15.75,15.75
-6.02,-7.35,2.29,12.88,12.60,12.60
-5.67,-7.35,2.29,11.06,10.99,10.99
-5.53,-7.22,2.25,8.68,8.68,8.47
-5.39,-7.11,2.23,6.23,5.11,4.69
-5.31,-7.16,2.31,1.40,0.28,-0.28
-5.33,-7.37,2.24,-2.38,-2.38,-2.94
-5.43,-7.59,2.14,-2.73,-2.73,-2.73
-5.61,-7.50,2.11,-0.77,-0.77,-0.77
-5.84,-7.32,2.12,0.77,0.63,0.63
-6.15,-7.22,2.12,0.77,0.84,0.84
-6.51,-7.19,2.11,1.75,1.75,2.03
-6.84,-7.33,2.03,6.02,6.02,6.02
-7.24,-7.14,2.04,9.38,9.38,9.80
-7.64,-6.80,2.19,9.66,9.66,9.66
-7.93,-6.57,2.21,8.05,7.56,7.56
-8.21,-6.48,2.18,6.30,6.30,5.95
-8.51,-6.50,2.25,5.88,5.88,5.88
-8.97,-6.29,2.46,7.91,7.91,8.40
-9.49,-6.29,2.69,9.31,9.31,9.45
-10.02,-6.54,2.80,14.00,14.00,14.00
-10.48,-6.65,2.92,20.72,20.72,20.72
-11.41,-5.46,3.17,26.88,26.88,26.53
-11.77,-4.75,3.32,23.59,23.59,22.19
-12.20,-4.45,3.40,19.60,19.53,19.53
-12.41,-4.33,3.31,20.02,20.02,20.02
-12.68,-4.11,3.33,19.88,19.88,19.88
-12.80,-3.93,3.25,19.67,20.16,20.16
-12.58,-4.18,3.09,23.03,23.03,24.50
-12.40,-4.20,2.85,31.57,31.57,31.57
-12.21,-3.96,2.76,38.71,38.71,38.71
-12.10,-3.63,2.73,42.63,43.40,43.40
-11.67,-3.14,2.71,44.38,44.38,44.38
-11.53,-2.83,2.66,43.82,43.96,43.96
-11.24,-2.64,2.76,43.82,43.89,43.89
-10.65,-2.05,2.71,44.10,44.10,43.89
-9.82,-0.89,2.61,42.70,42.14,40.95
-8.68,0.52,2.61,34.58,34.58,33.53
-8.05,1.05,2.56,27.30,27.30,25.90
-7.48,1.30,2.49,23.24,23.24,23.24
-7.12,1.89,2.46,20.58,20.58,20.58
-6.56,2.12,2.33,19.53,19.53,19.53
-5.52,2.90,2.17,19.46,19.46,19.46
-4.41,3.65,2.06,16.24,16.24,16.24
-3.25,4.49,2.20,10.22,10.22,10.22
-2.26,4.88,2.20,4.20,3.85,3.85
-1.56,4.89,2.20,3.29,3.43,3.43
-0.69,5.25,2.23,5.25,5.25,5.25
0.31,5.75,2.40,2.59,2.59,2.59
1.45,6.48,2.49,-2.10,-2.10,-2.10
2.29,6.89,2.62,-8.89,-9.73,-9.73
3.12,7.20,2.62,-13.65,-14.35,-14.35
3.82,7.22,2.57,-19.04,-19.04,-19.04
4.42,7.37,2.71,-23.45,-23.87,-23.87
4.80,7.36,2.80,-25.83,-26.67,-26.67
5.04,7.17,2.76,-27.16,-26.88,-26.88
5.25,6.78,2.69,-24.78,-24.78,-24.78
5.41,6.52,2.78,-19.74,-19.74,-19.74
5.02,6.47,3.05,-16.73,-16.73,-16.73
4.19,6.60,3.35,-13.02,-13.02,-13.02
1.78,7.59,4.18,-7.70,-7.70,-7.77
0.64,8.21,4.57,-8.75,-8.75,-9.38
-0.13,8.71,4.82,-11.06,-11.06,-11.20
-0.75,8.83,4.74,-10.85,-10.85,-10.85
-1.37,8.74,4.66,-7.77,-7.77,-7.77
-1.33,9.00,4.62,-2.66,-2.66,-2.66
-0.90,9.31,4.58,-1.33,-1.33,-1.33
-0.77,9.26,4.76,-1.05,-0.91,-0.91
-0.68,8.83,4.78,0.70,0.70,0.70
-0.42,8.36,4.61,3.78,4.62,5.04
0.36,8.06,4.47,7.21,7.21,7.21
0.70,8.25,4.57,7.49,7.49,7.49
0.34,8.29,4.68,4.90,4.90,4.90
-0.69,8.04,4.65,3.22,3.22,3.22
-1.90,7.80,4.49,4.76,4.76,4.76
-2.66,8.05,4.49,6.44,7.00,7.00
-3.16,8.47,4.53,7.77,7.77,7.91
-3.87,8.72,4.45,8.96,8.96,9.24
-4.81,9.08,4.42,9.94,9.94,9.94
-5.78,9.67,4.61,10.29,10.29,10.29
-6.16,10.19,4.66,9.94,9.94,9.87
-6.21,10.52,4.63,8.75,8.75,8.75
-5.47,10.93,4.59,7.56,7.56,7.56
-4.58,11.12,4.48,3.99,3.29,3.29
-3.56,11.17,4.52,0.00,-2.24,-2.24
-2.71,10.83,4.48,-5.88,-6.51,-7.91
-1.88,10.07,4.34,-10.50,-10.92,-11.62
-1.08,9.14,4.26,-12.53,-12.53,-12.39
-0.16,7.85,4.09,-10.92,-10.92,-10.50
0.88,7.32,4.09,-8.54,-8.54,-7.56
1.80,6.58,4.08,-6.16,-6.16,-6.02
2.82,6.21,4.03,-6.23,-6.23,-6.37
3.84,6.10,3.89,-10.01,-10.01,-10.01
4.66,6.05,3.74,-15.26,-15.26,-15.82
5.18,6.08,3.63,-19.25,-19.25,-19.67
5.49,5.98,3.38,-21.07,-21.07,-21.14
5.76,6.02,3.24,-20.86,-20.72,-20.51
5.86,6.18,3.17,-19.18,-19.18,-18.41
5.87,6.35,3.20,-16.66,-16.10,-16.10
5.73,6.60,3.41,-14.56,-14.28,-14.28
5.22,6.78,3.60,-13.23,-13.09,-13.09
4.97,6.81,3.62,-11.83,-11.83,-11.27
4.64,6.98,3.76,-10.57,-10.57,-10.57
4.24,6.95,3.86,-10.78,-10.78,-10.78
3.59,6.71,3.75,-10.08,-10.08,-9.87
2.91,6.55,3.70,-6.79,-6.79,-6.79
1.86,6.54,3.73,-4.62,-4.41,-4.41
1.20,6.46,3.60,-2.38,-2.10,-1.89
0.90,6.52,3.34,-2.24,-2.24,-2.24
0.79,6.99,3.42,-6.02,-6.02,-6.02
0.14,6.98,3.55,-16.31,-16.31,-16.31
-0.63,6.34,3.46,-21.42,-22.61,-22.61
-1.07,5.55,3.16,-24.57,-24.57,-24.78
-0.78,5.31,2.89,-26.60,-26.60,-26.60
-0.67,5.37,3.05,-29.96,-31.57,-31.57
-1.89,4.68,3.21,-36.89,-38.57,-38.57
-3.21,3.97,3.57,-42.00,-42.00,-42.00
-4.03,2.93,3.59,-40.88,-40.88,-40.88
-4.84,2.15,3.64,-34.09,-34.09,-34.09
-6.35,1.50,3.60,-29.12,-27.72,-27.72
-6.03,1.94,3.56,-25.20,-25.20,-25.20
-5.28,1.85,3.37,-28.35,-28.35,-28.35
-4.09,1.19,3.10,-33.25,-34.86,-34.86
-3.59,-0.69,2.68,-37.80,-37.80,-38.15
-3.38,-3.00,2.23,-37.73,-37.73,-37.31
-3.73,-5.66,2.05,-35.91,-35.91,-35.91
-4.16,-8.87,1.64,-36.33,-36.33,-36.33
-4.42,-11.75,1.33,-43.12,-43.12,-43.12
-4.87,-16.13,0.67,-56.56,-56.56,-56.56
-4.61,-19.68,0.44,-68.74,-70.00,-70.00
-4.63,-24.94,0.28,-74.76,-76.23,-76.23
-5.06,-26.82,1.09,-73.43,-73.43,-73.43
-6.47,-26.07,0.85,-52.92,-52.92,-52.92
-8.72,-21.67,0.73,-36.89,-36.89,-31.92
-11.49,-15.89,2.76,-20.58,-20.58,-20.58
-10.76,-15.02,12.26,-29.26,-29.26,-29.26
-12.55,-21.80,8.42,-39.06,-44.80,-44.80
-26.79,-7.07,-3.78,77.49,71.96,71.96
-23.33,-3.18,-1.81,44.17,36.75,21.07
-18.71,-3.51,-1.49,-17.57,-24.71,-38.36
-14.08,-6.89,-2.03,-66.99,-71.82,-71.82
-10.11,-11.86,-2.39,-98.77,-99.82,-99.82
-6.85,-13.90,-2.38,-97.37,-95.83,-95.83
-4.02,-15.92,-2.18,-83.72,-73.43,-73.43
-1.56,-16.17,-1.51,-42.63,-42.63,-42.63
-0.48,-14.94,-0.41,16.87,3.08,3.08
-0.22,-12.74,0.26,25.41,25.41,25.41
-0.63,-10.27,1.12,37.17,37.17,37.31
-1.58,-7.55,1.67,32.27,30.66,30.66
-2.34,-5.80,2.23,8.47,8.47,5.67
-3.24,-4.60,2.15,-11.97,-11.97,-11.97
-4.05,-4.56,1.92,-31.43,-31.43,-31.43
-4.69,-5.35,1.88,-41.44,-42.21,-43.47
-5.25,-6.20,1.85,-43.19,-43.19,-42.70
-5.60,-6.90,1.74,-35.42,-35.42,-32.27
-5.68,-7.31,1.57,-20.30,-20.30,-20.30
-5.72,-6.88,1.73,0.21,0.21,0.21
-5.67,-6.44,1.86,9.24,9.24,11.48
-5.37,-5.59,1.90,17.36,17.36,17.36
-4.98,-5.22,1.84,18.69,18.55,18.55
-4.72,-5.17,1.99,16.94,16.31,16.31
-4.62,-5.44,2.18,10.71,10.71,10.71
-4.48,-6.00,2.16,3.29,2.66,2.66
-4.30,-6.26,2.25,-2.17,-2.87,-2.87
-4.22,-6.81,2.35,-6.16,-6.58,-6.58
-4.13,-7.17,2.35,-7.84,-8.12,-8.12
-4.22,-7.62,2.30,-8.61,-8.61,-8.54
-4.44,-7.99,2.32,-8.05,-8.05,-7.84
-4.66,-8.20,2.47,-5.18,-5.18,-4.90
-5.12,-8.70,2.74,-4.62,-4.62,-4.76
-5.75,-9.06,2.70,-5.25,-5.25,-5.25
-6.32,-9.28,2.60,-4.97,-4.97,-4.90
-6.77,-9.12,3.01,-4.55,-4.55,-4.55
-7.25,-9.02,3.28,-5.25,-5.46,-5.46
-7.72,-8.90,3.24,-6.72,-7.56,-7.56
-7.99,-8.95,3.19,-8.68,-8.89,-8.75
-7.84,-9.42,3.04,-7.07,-6.37,-4.83
-7.74,-10.01,2.89,-0.42,0.56,2.66
-7.53,-9.84,2.63,7.91,9.24,9.24
-7.13,-9.29,2.39,16.17,16.73,16.73
-6.26,-8.38,2.16,16.03,15.33,15.33
-5.81,-8.30,2.09,12.32,12.32,11.90
-5.49,-8.29,1.81,9.52,9.52,9.52
-5.26,-8.59,1.81,8.61,8.61,8.61
-5.19,-9.04,1.89,7.35,7.35,7.35
-5.16,-9.25,1.96,5.88,5.88,5.88
-5.20,-9.24,2.00,2.94,2.94,2.94
-5.30,-9.14,1.96,-0.77,-0.77,-0.77
-5.35,-8.77,2.03,-3.36,-3.36,-3.36
-5.39,-8.50,2.01,-7.07,-7.56,-7.56
-5.40,-8.16,1.95,-10.29,-10.78,-10.78
-5.36,-7.88,1.96,-13.58,-13.58,-13.58
-5.26,-7.60,1.83,-13.86,-13.86,-13.86
-5.11,-7.52,1.77,-12.46,-12.46,-12.11
-4.93,-7.40,1.73,-9.66,-9.66,-9.38
-4.75,-7.23,1.74,-7.35,-7.35,-7.00
-4.36,-7.17,1.78,-1.54,-1.54,-1.54
-4.16,-7.26,1.80,2.66,2.66,2.66
-4.03,-7.25,1.80,4.90,4.90,4.90
-4.02,-7.04,1.92,4.55,4.55,4.55
-4.21,-7.49,1.92,-4.62,-5.11,-5.11
-4.40,-7.72,1.90,-6.02,-6.02,-6.02
-4.54,-7.85,1.83,-5.67,-5.67,-5.67
-4.79,-8.02,1.75,-4.62,-4.62,-4.62
-5.13,-8.02,1.71,-4.34,-4.20,-4.20
-5.46,-8.14,1.68,-4.13,-4.13,-4.13
-5.75,-8.26,1.55,-2.45,-2.17,-2.17
-6.11,-8.32,1.56,-1.05,-0.63,-0.63
-6.36,-8.38,1.60,-0.56,-0.56,-0.84
-6.62,-8.52,1.67,-2.10,-2.24,-2.24
-6.80,-8.78,1.64,-2.87,-3.22,-3.22
-6.87,-8.84,1.57,-3.43,-3.50,-3.50
-6.90,-8.84,1.62,-3.15,-3.15,-3.15
-6.85,-8.97,1.72,-3.01,-3.01,-3.01
-6.77,-8.99,1.75,-3.22,-3.22,-3.22
-6.55,-8.76,1.75,-3.57,-3.57,-3.57
-6.30,-8.71,1.74,-4.41,-4.41,-4.55
-6.00,-8.77,1.65,-4.55,-4.55,-4.34
-5.77,-8.78,1.56,-4.20,-4.06,-3.99
-5.53,-8.78,1.54,-3.57,-3.57,-3.50
-5.29,-8.78,1.64,-3.43,-3.43,-3.43
-5.06,-8.77,1.74,-3.78,-3.78,-3.78
-4.85,-8.73,1.82,-4.55,-4.55,-4.55
-4.65,-8.75,1.92,-5.25,-5.18,-5.18
-4.47,-8.69,1.94,-4.97,-4.90,-4.90
-4.36,-8.52,1.98,-4.83,-4.83,-4.83
-4.24,-8.44,1.90,-4.90,-4.90,-4.90
-4.15,-8.26,1.85,-4.41,-4.41,-4.41
-4.02,-8.15,1.82,-2.87,-2.87,-2.87
-3.92,-8.16,1.85,-1.05,-1.05,-1.05
-3.83,-8.13,1.91,0.42,0.42,0.42
-3.77,-8.01,1.89,1.61,1.75,1.75
-3.75,-7.85,1.93,2.31,2.31,2.31
-3.78,-7.85,1.94,1.47,1.47,1.26
-3.84,-7.80,1.96,0.14,-0.42,-0.49
-3.90,-7.91,1.97,-1.89,-2.59,-2.59
-4.04,-8.06,2.01,-4.83,-4.83,-5.18
-4.19,-8.19,2.01,-7.21,-7.21,-7.21
-4.29,-8.36,1.95,-8.61,-8.61,-8.54
-4.46,-8.44,1.89,-8.89,-8.89,-8.89
-4.71,-8.47,1.90,-8.75,-8.75,-8.75
-4.89,-8.47,1.92,-7.98,-7.98,-7.98
-5.08,-8.55,1.94,-6.86,-6.86,-6.86
-5.26,-8.52,1.95,-6.44,-6.30,-6.30
-5.43,-8.52,1.93,-5.74,-5.67,-5.67
-5.60,-8.66,1.89,-4.97,-4.97,-4.90
-5.73,-8.80,1.83,-3.57,-3.57,-3.57
-5.84,-8.82,1.79,-2.87,-2.87,-2.73
-5.95,-8.82,1.73,-1.82,-1.82,-1.82
-5.94,-8.79,1.66,-1.26,-1.33,-1.33
-5.87,-8.76,1.63,-1.05,-0.77,-0.77
-5.76,-8.67,1.61,-0.42,-0.21,0.00
-5.36,-8.47,1.59,2.10,2.10,2.31
-5.07,-8.44,1.66,3.15,3.29,3.29
-4.80,-8.48,1.69,4.83,4.83,4.97
-4.47,-8.49,1.67,6.09,6.09,6.86
-4.08,-8.45,1.79,7.98,7.98,7.98
-3.78,-8.30,1.85,8.33,8.33,8.33
-3.52,-8.09,1.87,8.12,8.12,8.12
-3.25,-7.90,1.85,7.84,7.56,7.56
-3.06,-7.78,1.85,6.86,6.86,6.37
-2.97,-7.90,1.84,4.48,4.27,4.27
-3.00,-8.46,1.75,-1.12,-1.12,-1.19
-3.10,-8.93,1.75,-3.15,-3.15,-3.15
-3.35,-9.08,1.80,-5.25,-5.25,-5.25
-3.60,-9.16,1.82,-7.07,-7.21,-7.63
-3.87,-9.31,1.84,-8.47,-8.54,-8.54
-4.13,-9.17,2.03,-9.45,-9.45,-9.38
-4.37,-9.23,2.14,-9.87,-9.87,-10.22
-4.76,-9.41,2.32,-10.78,-10.78,-10.85
-5.05,-9.48,2.39,-9.59,-9.59,-9.59
-5.39,-9.51,2.47,-7.28,-7.28,-7.28
-5.92,-9.69,2.57,-5.81,-5.53,-5.53
-6.38,-9.73,2.57,-4.69,-4.69,-4.69
-6.88,-10.00,2.57,-3.15,-3.15,-3.15
-7.37,-10.31,2.50,-0.84,-0.84,-0.84
-7.96,-10.23,2.42,0.35,0.56,0.56
-8.38,-10.13,2.40,0.91,0.91,0.70
-8.96,-10.05,2.32,-0.70,-0.70,-0.70
-9.39,-10.11,2.18,-2.03,-2.03,-2.03
-9.94,-10.54,1.99,-1.54,-1.54,-1.26
-10.72,-10.92,1.78,1.33,2.03,2.03
-11.45,-10.76,1.65,6.37,6.37,6.37
-12.05,-10.25,1.58,9.45,9.38,9.38
-12.74,-9.54,1.56,8.19,7.98,7.98
-13.08,-9.03,1.45,6.30,6.37,6.37
-13.27,-8.34,1.39,8.26,8.26,8.61
-13.18,-7.83,1.50,9.94,9.94,9.94
-12.73,-6.86,1.58,9.24,8.75,8.47
-11.52,-5.74,1.65,7.21,7.21,6.72
-8.97,-4.95,1.69,7.42,7.42,7.42
-6.47,-4.13,1.55,13.16,13.16,15.26
-3.35,-2.87,1.39,23.17,24.15,24.15
-1.43,-1.93,1.39,29.61,29.96,29.96
-0.40,-1.51,1.34,31.85,31.85,32.06
0.31,-1.12,1.23,34.30,34.30,34.58
0.80,-0.62,1.08,34.86,34.86,34.86
0.86,0.25,1.00,30.94,30.94,29.40
0.48,1.44,0.99,21.98,20.86,20.86
0.07,2.29,1.13,10.36,9.03,9.03
-0.86,3.24,1.59,-3.22,-3.22,-4.90
-2.39,3.25,1.98,-16.38,-16.38,-17.85
-4.12,2.65,2.36,-23.80,-23.80,-24.29
-5.76,1.82,2.70,-23.94,-22.89,-22.89
-7.48,1.15,3.04,-17.57,-17.57,-15.26
-9.17,0.57,3.39,-4.48,-4.48,-4.48
-11.54,2.58,3.80,5.74,5.74,4.69
-12.06,3.00,3.77,-1.19,-3.71,-5.04
-12.72,3.07,3.82,-11.34,-11.34,-15.05
-12.98,2.46,3.71,-20.30,-20.30,-20.44
-14.20,1.31,3.46,6.93,6.93,8.26
-13.84,2.07,3.43,15.96,15.96,15.96
-13.60,2.69,3.40,17.50,17.29,17.29
-13.25,3.23,3.45,14.98,14.98,14.98
-12.86,3.07,3.39,8.47,8.47,8.47
-12.00,2.35,3.28,3.57,3.57,3.43
-11.54,2.25,3.22,2.73,2.73,2.73
-10.85,2.01,3.18,3.78,3.78,4.13
-9.76,2.01,2.96,8.05,9.45,9.45
-8.23,2.66,2.79,13.30,13.30,13.72
-6.76,3.15,2.65,15.82,15.82,15.89
-5.29,3.42,2.51,16.59,16.59,16.73
-3.90,3.50,2.21,18.13,18.13,18.13
-2.60,3.64,1.95,19.18,19.18,19.18
-1.95,3.81,1.83,17.57,17.57,17.57
-1.84,4.24,1.73,14.28,14.28,14.28
-2.09,4.48,1.86,5.88,4.62,4.62
-2.59,4.66,1.94,-1.47,-4.97,-4.97
-3.53,4.86,2.02,-10.36,-11.34,-13.44
-4.89,4.81,2.34,-18.20,-19.18,-19.18
-6.50,4.39,2.84,-25.06,-25.55,-26.46
-7.83,4.12,3.14,-26.95,-26.74,-26.11
-8.48,3.98,3.24,-22.89,-21.77,-21.77
-8.84,4.01,3.36,-14.84,-14.84,-11.90
-9.26,4.20,3.76,-7.49,-7.49,-6.72
-9.85,4.69,3.95,-0.56,-0.56,-0.07
-10.12,5.08,3.99,1.89,1.89,1.89
-10.14,5.50,4.08,-0.49,-0.49,-0.49
-10.08,5.70,4.06,-3.57,-3.57,-3.99
-10.11,5.51,3.91,-6.65,-6.65,-6.65
-10.14,5.06,3.85,-5.60,-5.25,-5.25
-10.27,4.84,3.78,-2.03,-2.03,-2.03
-10.27,4.75,3.71,0.91,1.33,1.33
-10.02,4.92,3.43,8.47,8.82,8.82
-9.98,5.10,3.36,9.87,9.87,9.87
-10.04,5.38,3.44,7.77,7.77,7.77
-10.63,5.42,3.60,4.62,4.62,4.62
-11.85,5.10,3.66,2.66,2.66,2.66
-13.48,4.91,3.97,2.52,2.52,2.52
-14.56,4.94,3.95,4.34,4.34,4.34
-13.48,5.82,3.76,7.35,7.35,7.35
-11.12,6.94,3.30,8.26,8.26,8.26
-7.82,7.72,3.01,4.90,4.90,4.90
-4.90,7.48,2.73,-1.33,-1.33,-1.33
-1.81,6.67,2.57,-8.68,-9.45,-9.45
1.09,5.01,2.39,-12.67,-12.67,-12.67
2.68,3.80,2.11,-9.80,-9.03,-9.03
3.76,2.97,1.81,-3.01,-2.03,-2.03
4.28,3.18,1.69,3.43,3.85,3.85
4.26,3.64,1.67,4.97,4.97,5.04
3.89,4.38,1.72,4.34,4.34,4.06
2.93,5.15,1.91,0.84,0.84,0.14
1.85,5.64,2.42,-9.03,-9.03,-9.03
0.29,5.94,2.91,-20.37,-20.37,-20.37
-1.82,5.94,3.24,-28.77,-31.15,-31.15
-4.44,5.82,3.58,-37.94,-38.57,-38.57
-5.70,5.78,4.05,-43.33,-43.47,-43.47
-7.60,5.27,4.36,-44.10,-44.10,-43.82
-9.69,5.20,4.58,-30.94,-30.94,-29.68
-9.96,5.53,4.92,-23.17,-23.17,-21.70
-10.19,6.07,5.14,-18.41,-18.41,-18.41
-10.61,6.36,5.30,-14.77,-14.77,-14.77
-12.02,7.46,5.67,-10.01,-10.01,-10.01
-11.66,7.74,5.51,-9.87,-9.66,-9.66
-11.48,7.78,5.40,-8.47,-8.47,-8.47
-11.59,7.37,5.36,-3.50,-3.50,-3.50
-11.92,6.99,5.36,0.91,2.17,2.17
-12.04,6.84,5.45,5.39,5.39,5.95
-11.62,6.84,5.33,7.42,7.42,7.70
-10.51,6.92,5.02,8.05,8.05,7.98
-9.13,6.67,4.66,7.77,7.63,7.49
-7.53,6.36,4.35,6.93,6.93,6.65
-6.11,5.79,3.97,6.37,6.44,6.44
-4.42,5.34,3.63,6.93,6.93,6.93
-2.91,5.04,3.34,7.91,8.12,8.61
-1.50,4.60,2.95,10.50,10.50,10.78
0.12,4.60,2.61,13.51,13.51,13.51
1.48,4.84,2.31,15.05,15.05,15.05
2.67,5.45,2.29,13.72,12.11,12.11
3.59,6.20,2.41,8.19,7.28,5.32
3.95,6.93,2.73,-0.21,-1.47,-1.47
4.13,7.87,3.09,-12.46,-13.65,-13.65
3.84,8.19,3.35,-21.42,-21.42,-22.33
3.07,8.39,3.71,-28.21,-28.21,-28.70
2.06,8.44,4.18,-32.48,-32.48,-32.83
0.39,8.64,4.69,-34.37,-34.72,-34.86
-1.48,8.65,5.39,-34.51,-34.51,-34.16
-2.92,8.37,5.81,-26.46,-26.46,-25.06
-3.73,8.14,5.69,-13.30,-13.30,-11.48
-3.33,8.73,5.51,0.28,0.28,1.61
-2.62,9.23,5.49,7.56,7.56,7.98
-1.88,9.69,5.42,8.89,8.89,8.75
-1.00,9.64,5.19,7.91,7.91,7.91
-0.54,9.30,4.99,5.81,5.81,5.81
-0.06,8.90,4.83,3.36,3.36,3.36
0.33,8.85,4.83,-1.05,-1.05,-1.05
0.66,8.77,4.86,-8.26,-9.03,-9.03
0.98,8.66,4.84,-14.35,-14.91,-14.91
1.23,8.11,4.70,-17.50,-17.71,-17.71
1.73,7.66,4.61,-17.85,-17.71,-17.71
2.33,7.15,4.45,-17.01,-16.87,-16.87
3.30,6.86,4.28,-15.61,-15.26,-15.05
4.23,6.43,4.19,-14.14,-14.14,-13.23
5.07,6.02,3.97,-11.34,-11.34,-10.92
5.69,5.91,3.95,-8.26,-8.26,-8.26
5.61,6.08,4.05,-7.07,-7.07,-7.14
5.20,6.65,4.34,-8.33,-8.33,-8.33
4.41,7.19,4.50,-10.15,-10.15,-10.15
3.15,7.59,4.65,-11.48,-11.83,-11.83
2.05,7.82,4.92,-11.76,-11.76,-11.62
0.86,8.07,5.11,-10.22,-9.38,-8.82
-0.02,8.22,5.17,-6.16,-6.16,-4.06
-0.35,8.40,5.21,0.84,0.84,1.47
-0.15,8.38,5.18,7.84,7.84,7.84
0.65,8.22,5.07,12.60,12.60,12.60
1.64,8.03,4.92,17.64,17.64,18.76
2.23,7.71,4.77,22.05,22.40,22.40
2.18,7.68,4.89,23.66,23.66,23.66
1.85,7.67,4.97,22.47,22.47,22.19
1.63,7.41,4.78,18.13,18.13,17.78
1.44,7.38,4.60,14.00,14.00,14.00
1.20,7.15,4.32,10.50,10.50,9.24
1.50,6.97,3.91,5.25,5.25,3.78
0.85,5.98,3.33,-5.60,-5.60,-5.60
0.06,5.38,3.13,-7.07,-7.07,-7.07
0.06,4.99,2.71,-7.21,-7.21,-7.21
0.36,4.80,2.64,-8.12,-8.12,-9.38
0.82,4.53,2.52,-12.74,-12.74,-15.47
0.49,2.67,2.09,-27.37,-27.37,-29.19
-0.46,1.35,1.97,-31.36,-31.36,-32.06
-1.72,-0.05,1.99,-32.48,-32.48,-32.69
-3.28,-1.57,1.81,-32.90,-32.90,-32.90
-4.64,-2.93,1.64,-32.97,-32.97,-32.97
-6.11,-4.65,1.51,-32.20,-31.85,-31.85
-7.21,-6.67,1.58,-30.24,-30.24,-29.89
-8.50,-8.68,1.61,-26.53,-26.53,-26.53
-9.98,-11.02,1.76,-23.31,-22.05,-22.05
-10.55,-12.56,1.75,-17.85,-16.38,-16.38
-11.11,-14.07,1.96,-11.69,-11.69,-9.94
-12.28,-15.13,1.96,-3.71,-3.71,-3.71
-13.43,-15.78,1.94,4.97,4.97,4.97
-14.46,-15.06,1.88,13.44,13.44,13.44
-15.51,-13.52,1.85,15.47,15.54,15.54
-16.48,-11.04,2.23,9.66,9.66,9.66
-17.48,-8.65,2.85,-1.40,-1.40,-1.40
-17.69,-7.68,3.69,-15.26,-16.17,-16.17
-16.94,-7.85,4.05,-18.34,-17.29,-17.29
-15.35,-8.51,4.05,-12.39,-11.06,-8.12
-13.39,-9.22,3.40,0.42,2.31,2.31
-11.33,-9.52,2.50,18.41,19.81,19.81
-9.45,-9.34,2.17,27.37,27.93,27.93
-7.86,-9.03,2.03,28.98,28.77,28.42
-6.77,-8.63,1.71,23.59,23.59,22.75
-5.76,-8.60,1.56,15.68,15.68,14.77
-5.10,-8.67,1.47,9.80,8.82,7.91
-4.78,-8.82,1.43,2.80,2.03,2.03
-4.71,-8.83,1.43,-4.20,-4.20,-4.55
-4.70,-8.80,1.45,-6.72,-7.42,-7.42
-4.78,-8.55,1.48,-9.10,-9.10,-9.31
-4.99,-7.92,1.71,-13.09,-13.09,-13.37
-5.04,-7.81,1.82,-14.28,-14.28,-14.28
-4.96,-7.93,1.86,-13.58,-13.58,-13.58
-4.91,-8.06,1.89,-12.11,-11.62,-11.62
-4.82,-8.14,1.93,-9.80,-9.80,-9.10
-4.63,-8.22,1.97,-7.21,-7.21,-7.21
-4.36,-8.31,1.94,-4.20,-4.20,-3.57
-4.10,-8.38,1.94,-0.84,-0.14,-0.14
-3.80,-8.35,1.94,1.82,1.82,2.24
-3.58,-8.18,1.95,2.94,2.94,2.94
-3.41,-8.09,1.99,1.82,1.75,1.75
-3.28,-8.12,1.95,0.21,0.21,0.21
-3.20,-8.12,1.92,-0.56,-0.56,-0.63
-3.20,-7.94,1.91,-2.24,-2.24,-2.59
-3.33,-8.06,1.96,-4.97,-4.97,-5.39
-3.59,-8.31,1.92,-9.80,-9.80,-9.80
-3.87,-8.35,1.92,-11.90,-12.46,-12.46
-4.22,-8.53,1.96,-13.93,-13.93,-14.21
-4.57,-8.74,2.05,-15.12,-15.12,-15.12
-4.89,-8.87,2.00,-14.91,-14.70,-14.70
-5.10,-8.95,2.00,-13.58,-13.58,-13.02
-5.35,-9.05,2.03,-11.48,-11.48,-10.85
-5.50,-9.20,2.08,-8.47,-8.47,-8.47
-5.53,-9.21,1.99,-5.81,-5.81,-5.81
-5.54,-9.10,1.94,-3.71,-3.50,-3.08
-5.48,-9.17,1.92,-2.10,-1.89,-1.89
-5.38,-9.21,1.84,-0.28,-0.28,-0.28
-5.20,-9.20,1.68,1.82,2.24,2.24
-4.98,-9.13,1.63,3.57,3.57,3.78
-4.80,-8.99,1.61,4.41,4.41,4.34
-4.60,-8.88,1.62,4.20,4.20,4.13
-4.35,-8.79,1.57,3.57,3.57,3.57
-4.18,-8.67,1.52,2.52,2.52,2.52
-4.02,-8.56,1.51,1.54,1.33,1.33
-3.85,-8.59,1.56,0.21,0.21,0.21
-3.69,-8.66,1.57,-0.63,-0.70,-0.70
-3.56,-8.77,1.56,-0.98,-0.98,-0.98
-3.45,-8.79,1.55,-0.91,-0.70,-0.70
-3.40,-8.69,1.55,-0.63,-0.63,-0.63
-3.43,-8.61,1.62,-1.54,-1.54,-1.61
-3.45,-8.58,1.64,-2.38,-2.66,-2.80
-3.45,-8.65,1.62,-3.29,-3.22,-3.22
-3.52,-8.70,1.67,-3.36,-3.36,-3.36
-3.66,-8.70,1.67,-4.41,-4.41,-4.69
-3.93,-8.90,1.68,-6.30,-6.30,-6.30
-4.16,-9.21,1.69,-8.33,-8.96,-8.96
-4.39,-9.45,1.65,-9.03,-9.03,-8.89
-4.62,-9.42,1.75,-7.63,-7.56,-7.56
-4.88,-9.42,1.88,-6.86,-6.86,-6.86
-5.17,-9.29,1.88,-7.70,-8.12,-8.12
-5.39,-9.11,1.91,-10.15,-10.15,-10.36
-5.54,-9.10,1.93,-12.04,-12.04,-12.04
-5.59,-9.03,1.95,-12.67,-12.67,-12.67
-5.56,-9.00,1.88,-12.67,-12.60,-12.60
-5.43,-8.90,1.86,-11.90,-11.90,-11.62
-5.22,-8.87,1.85,-9.87,-9.59,-9.59
-4.89,-8.77,1.82,-6.37,-6.37,-6.37
-4.64,-8.66,1.77,-2.38,-1.89,-1.89
-4.36,-8.56,1.75,2.17,2.87,2.87
-4.09,-8.35,1.70,5.60,7.14,7.14
-3.78,-8.14,1.63,10.15,10.15,10.15
-3.57,-8.04,1.50,12.74,13.02,13.02
-3.43,-7.89,1.44,14.00,14.42,14.42
-3.31,-7.72,1.29,14.98,14.98,14.98
-3.24,-7.59,1.25,14.70,14.70,14.49
-3.12,-7.64,1.23,13.58,13.58,13.58
-3.10,-7.70,1.27,11.76,11.76,11.76
-3.17,-7.88,1.22,9.73,9.73,9.73
-3.24,-8.04,1.18,7.63,7.35,6.72
-3.31,-8.28,1.14,5.53,5.32,5.04
-3.54,-8.67,1.11,4.48,4.48,4.27
-3.86,-8.81,1.06,4.06,4.06,4.06
-4.19,-8.77,1.09,2.94,2.66,2.66
-4.55,-8.82,1.16,0.91,0.56,0.21
-4.95,-8.92,1.18,-3.22,-3.22,-3.22
-5.32,-9.07,1.08,-6.37,-6.37,-6.37
-5.61,-9.30,1.13,-8.89,-8.89,-8.89
-5.75,-9.39,1.22,-10.78,-10.78,-10.78
-5.89,-9.46,1.39,-10.71,-10.71,-10.71
-5.91,-9.64,1.39,-10.01,-10.01,-10.01
-5.76,-9.62,1.54,-8.68,-8.47,-8.47
-5.54,-9.63,1.71,-7.98,-7.77,-7.77
-5.08,-9.48,1.73,-6.51,-6.44,-6.30
-4.80,-9.28,1.72,-6.09,-6.09,-6.09
-4.55,-9.09,1.66,-7.00,-7.00,-7.00
-4.28,-9.09,1.53,-8.40,-8.40,-8.40
-3.98,-9.13,1.38,-8.26,-8.26,-8.26
-3.77,-9.11,1.20,-6.30,-6.30,-6.30
-3.50,-9.01,1.08,-1.54,-1.54,-1.54
-3.25,-8.99,1.02,1.54,1.54,1.54
-3.05,-8.86,0.93,5.25,5.25,5.25
-2.97,-8.75,0.89,7.00,7.00,7.00
-2.83,-8.24,0.89,8.96,8.96,8.96
-2.81,-8.43,0.97,8.47,8.47,8.40
-2.90,-8.71,1.04,7.21,7.21,7.21
-3.10,-8.90,1.06,6.23,6.02,6.02
-3.36,-9.06,1.13,4.34,4.34,4.34
-3.66,-9.11,1.40,2.03,2.03,2.03
-3.93,-9.32,1.65,-0.42,-0.42,-0.42
-4.24,-9.51,1.67,-2.38,-2.73,-2.73
-4.52,-9.50,1.74,-3.29,-3.29,-3.57
-4.82,-9.51,1.85,-3.57,-3.64,-3.64
-5.06,-9.68,1.96,-2.03,-2.03,-1.96
-5.34,-9.81,2.03,-0.63,0.00,0.28
-5.68,-9.94,2.09,2.24,2.66,2.66
-5.91,-10.26,2.12,6.65,6.65,7.21
-6.20,-10.53,2.07,10.29,10.29,10.92
-6.52,-10.65,2.24,14.14,14.14,14.98
-6.95,-10.86,2.20,17.22,17.22,17.22
-7.21,-10.81,2.19,20.65,20.65,20.65
-7.56,-10.96,2.21,22.12,22.12,22.12
-8.58,-11.06,1.72,24.29,24.36,24.36
-8.84,-10.63,1.64,23.87,23.59,23.59
-9.14,-10.60,1.79,22.19,22.05,22.05
-9.51,-10.30,1.70,21.49,21.56,21.63
-9.97,-10.30,1.47,21.84,21.70,21.70
-10.56,-10.05,1.66,20.58,20.37,20.37
-10.92,-9.33,1.62,20.23,19.81,19.81
-11.13,-8.04,1.52,17.78,17.22,17.22
-11.53,-6.97,1.45,11.97,11.20,11.20
-11.79,-6.40,1.31,5.53,4.69,4.69
-12.15,-6.27,1.15,-1.05,-1.05,-1.54
-12.19,-5.70,1.14,-2.59,-2.73,-2.73
-11.61,-4.64,1.01,-3.43,-3.64,-3.64
-10.15,-2.60,0.86,-6.72,-7.42,-7.42
-8.98,-1.25,0.98,-14.00,-14.00,-15.05
-7.61,-0.42,0.88,-24.50,-24.50,-25.41
-6.20,0.27,0.87,-29.33,-30.24,-30.94
-4.69,0.47,0.95,-32.83,-32.83,-32.83
-3.95,0.64,0.92,-30.94,-30.94,-30.45
-2.82,1.34,0.97,-28.42,-27.79,-27.65
-1.66,2.37,1.15,-27.51,-27.51,-27.51
-0.69,3.27,1.40,-30.59,-31.01,-31.01
0.54,4.16,1.62,-34.16,-36.61,-36.61
1.78,4.99,1.94,-41.79,-41.79,-42.63
2.94,5.34,2.16,-50.89,-50.89,-50.89
4.26,5.77,2.23,-55.58,-56.98,-56.98
5.46,5.87,2.18,-61.74,-63.42,-63.42
6.34,5.96,2.38,-68.74,-70.21,-70.21
7.21,5.90,2.45,-74.48,-74.48,-74.83
7.67,5.75,2.64,-75.04,-75.04,-75.04
7.86,5.55,2.85,-67.13,-67.13,-67.13
7.70,5.36,3.07,-58.87,-55.86,-55.86
7.15,5.32,3.50,-45.64,-45.64,-41.79
6.43,5.45,4.07,-29.96,-29.96,-29.96
5.77,5.90,4.61,-12.74,-10.99,-10.99
5.16,6.29,4.95,-0.77,0.49,0.49
4.48,6.73,5.23,7.21,7.21,8.05
3.91,7.14,5.47,14.70,14.70,14.70
3.67,7.33,5.39,18.55,18.55,19.74
3.20,7.46,5.37,24.08,24.08,24.08
2.86,7.52,5.35,27.79,28.14,28.14
2.77,7.54,5.26,30.03,31.01,31.01
2.82,7.46,5.03,32.48,32.69,32.90
3.06,7.57,4.95,33.25,33.11,33.11
3.43,7.68,4.89,31.01,31.01,30.66
3.87,7.73,4.76,27.79,27.37,27.37
4.16,7.48,4.42,23.94,23.94,23.73
4.51,7.14,4.17,22.82,22.33,22.40
5.35,6.54,3.52,20.51,20.51,20.51
5.52,6.47,3.41,18.06,18.06,18.06
5.55,6.37,3.32,13.23,13.23,13.23
5.49,6.07,3.22,10.22,10.22,10.22
5.26,5.82,3.20,4.83,4.83,4.83
5.08,5.48,3.13,1.19,1.19,1.19
4.84,5.25,3.13,-3.99,-4.62,-4.62
4.42,4.96,3.19,-7.91,-9.94,-9.94
3.81,4.57,3.28,-14.49,-14.49,-14.49
3.00,4.09,3.35,-19.32,-19.32,-20.58
2.15,3.26,3.32,-22.68,-22.68,-22.68
1.41,2.19,3.24,-24.01,-24.08,-24.08
0.65,1.36,3.22,-24.78,-24.85,-24.85
-0.05,0.60,3.23,-26.25,-26.46,-26.46
-0.93,-0.81,3.11,-27.58,-28.07,-28.07
-2.62,-4.42,2.89,-34.09,-34.09,-34.86
-5.16,-8.27,2.74,-43.05,-43.05,-43.75
-6.39,-10.62,2.67,-47.25,-47.25,-47.25
-8.79,-16.52,2.70,-42.28,-42.28,-42.28
-9.29,-18.24,2.85,-36.05,-36.05,-36.05
-10.29,-20.85,2.68,-21.35,-21.35,-21.35
-10.70,-21.86,2.37,-6.44,-6.44,-6.44
-10.64,-21.07,1.86,15.05,17.29,17.29
-10.31,-19.65,1.80,28.91,29.75,29.75
-10.28,-18.29,1.90,31.57,31.36,31.36
-9.87,-17.57,1.90,29.75,28.63,28.63
-9.13,-17.51,1.85,24.71,24.71,24.71
-8.64,-17.30,1.97,15.82,14.14,10.50
-8.20,-17.46,1.85,-2.52,-2.52,-2.52
-7.77,-18.25,1.67,-17.15,-17.15,-17.15
-7.18,-18.00,1.87,-28.42,-28.42,-30.59
-6.15,-16.08,1.97,-37.10,-38.15,-38.15
-5.25,-14.53,2.17,-45.71,-46.48,-46.48
-4.07,-13.57,2.04,-49.98,-49.98,-49.84
-3.05,-13.28,1.97,-45.78,-45.78,-45.08
-2.04,-12.36,2.35,-40.60,-40.60,-39.90
-1.55,-11.42,2.32,-34.72,-34.72,-34.72
-1.49,-10.52,2.27,-32.41,-32.20,-32.20
-1.35,-9.45,2.89,-32.20,-32.13,-32.13
-1.53,-8.78,2.90,-31.36,-31.36,-31.36
-1.92,-8.56,2.90,-31.57,-31.71,-31.71
-2.53,-8.29,2.90,-31.22,-31.22,-31.22
-3.77,-7.86,3.01,-11.76,-11.76,-11.76
-3.91,-8.16,2.83,-0.28,1.26,1.26
-4.03,-8.44,2.51,9.45,12.81,14.56
-3.97,-8.74,2.09,25.13,26.67,26.67
-3.74,-8.75,1.90,37.87,37.87,38.85
-3.41,-8.73,1.83,41.72,42.49,42.49
-2.94,-9.21,1.47,43.54,43.82,43.82
-2.39,-9.47,1.36,43.05,43.05,42.42
-1.89,-10.08,1.30,39.41,39.41,39.41
-1.36,-10.79,1.10,33.53,33.53,33.53
-0.86,-11.92,0.95,30.10,29.61,29.61
-0.33,-13.21,0.60,26.74,26.74,26.74
-0.04,-13.46,0.36,26.88,26.88,26.88
-0.00,-14.00,0.32,27.37,27.37,27.37
0.12,-14.21,0.37,27.16,27.37,27.37
0.05,-13.54,0.34,28.63,28.77,28.77
-0.11,-14.05,0.33,28.91,28.77,28.77
-0.08,-14.45,0.36,28.35,28.35,28.28
-0.18,-13.59,0.39,27.44,27.44,27.44
-0.51,-14.06,0.21,23.66,22.82,22.82
-0.59,-15.10,0.54,17.71,16.87,16.87
-0.61,-14.34,1.12,11.90,11.41,11.41
-0.73,-13.16,1.43,8.54,8.54,8.54
-0.57,-12.30,1.23,9.80,10.43,10.43
-0.33,-12.08,1.05,13.58,15.89,15.89
-0.15,-12.54,0.94,19.60,20.30,21.63
0.08,-12.52,1.28,24.99,25.83,27.16
0.36,-11.82,1.62,30.38,31.01,31.01
0.48,-9.97,1.84,32.83,32.76,32.76
0.56,-9.25,1.88,30.24,30.24,30.24
0.69,-8.97,1.92,23.94,22.05,22.05
0.76,-8.25,2.14,16.52,14.63,14.63
0.77,-7.51,2.34,9.24,8.61,8.61
0.79,-7.00,2.35,1.19,1.19,1.19
0.76,-6.95,2.33,-4.06,-4.06,-4.06
0.54,-7.41,2.25,-6.23,-6.23,-6.30
0.16,-8.04,2.17,-5.18,-5.18,-5.18
-0.66,-8.53,2.26,-2.59,-1.68,-1.68
-2.26,-8.92,2.64,0.21,0.63,0.63
-3.39,-8.75,3.05,2.80,2.80,3.15
-4.89,-8.57,3.01,5.18,5.18,5.46
-5.80,-8.32,2.96,6.51,6.51,6.51
-6.43,-7.60,2.87,5.95,5.95,5.95
-6.80,-6.87,2.86,4.83,4.83,4.83
-7.23,-6.18,2.94,3.78,3.78,3.78
-7.50,-5.87,2.95,3.71,3.71,3.71
-7.81,-5.95,2.95,5.95,5.95,5.95
-8.02,-6.07,2.99,9.87,10.57,10.57
-8.21,-5.81,3.04,16.66,17.22,17.22
-8.74,-5.41,3.26,21.35,21.35,21.35
-9.02,-5.25,3.46,19.81,19.46,19.46
-9.48,-5.04,3.56,17.01,16.52,16.52
-9.79,-4.88,3.67,11.20,11.20,10.36
-10.14,-4.52,3.92,-0.98,-0.98,-4.34
-10.41,-4.51,3.99,-10.43,-10.43,-14.00
-10.63,-4.60,3.86,-19.46,-19.46,-20.44
-10.80,-5.06,3.66,-26.39,-26.39,-26.74
-10.89,-5.46,3.51,-27.72,-27.72,-27.72
-10.94,-5.62,3.33,-26.39,-26.39,-26.39
-10.94,-5.72,3.21,-23.80,-22.61,-22.61
-10.78,-5.75,2.93,-16.31,-16.31,-16.31
-10.49,-5.62,2.81,-9.80,-9.80,-9.80
-10.05,-5.26,2.79,-5.74,-4.48,-4.48
-9.42,-4.74,2.78,-0.84,0.14,0.14
-8.55,-3.53,2.73,2.31,2.10,2.10
-7.67,-2.64,2.71,-1.47,-1.47,-1.47
-6.72,-1.94,2.54,-9.66,-11.13,-11.13
-5.44,-1.18,2.13,-27.44,-29.47,-29.47
-4.54,-1.13,1.90,-46.97,-49.84,-49.84
-4.18,-1.78,1.79,-65.31,-68.53,-75.32
-4.62,-3.44,1.90,-91.56,-94.64,-94.64
-6.13,-7.71,1.16,-109.06,-108.85,-108.85
-6.59,-11.24,0.26,-97.72,-94.22,-94.22
-6.37,-14.36,-0.95,-42.28,-42.28,-35.28
-6.36,-15.20,-0.03,-0.70,11.48,11.48
-6.40,-13.29,2.03,46.27,46.27,46.27
-5.66,-12.09,1.97,62.65,62.65,62.65
-5.06,-10.05,1.38,72.66,73.01,73.01
-4.83,-6.74,1.68,71.40,70.70,70.70
-4.69,-4.37,2.44,60.76,60.76,59.43
-4.99,-2.78,3.23,53.27,53.27,52.50
-5.98,-2.05,4.25,49.07,49.07,49.07
-7.07,-1.10,4.67,46.48,45.43,45.43
-9.67,-0.91,4.86,41.79,41.37,41.37
-9.69,-1.26,4.79,38.57,38.57,38.43
-11.18,-1.53,4.25,33.95,33.95,33.46
-11.60,-1.62,4.17,29.26,29.26,29.26
-12.01,-1.65,3.94,27.51,27.37,27.37
-11.98,-1.19,3.76,25.34,25.34,23.38
-11.71,-0.66,3.52,18.62,18.62,15.40
-11.36,-0.47,3.46,7.70,7.70,7.70
-11.11,-0.65,3.36,3.08,3.08,3.08
-10.76,-0.74,3.13,3.15,3.15,3.15
-10.21,-0.63,3.01,3.15,3.15,3.15
-9.81,-0.62,3.08,2.73,2.73,2.73
-9.73,-0.96,3.09,5.95,5.95,5.95
-9.65,-1.11,3.15,11.48,12.53,12.53
-9.49,-1.14,3.24,19.25,20.09,20.09
-9.33,-0.71,3.35,24.01,25.55,25.55
-9.39,-0.15,3.60,26.11,25.69,25.69
-9.75,0.16,3.78,25.27,25.34,25.55
-9.96,0.33,3.80,27.23,27.51,28.35
-10.87,1.21,4.10,31.78,31.99,31.99
-11.24,1.73,4.22,32.13,32.13,32.13
-11.54,2.44,4.21,31.08,30.73,30.73
-11.83,2.70,4.08,29.33,29.33,29.40
-12.28,2.58,4.06,30.45,31.15,31.50
-12.58,2.89,4.07,32.55,32.41,32.41
-12.80,3.17,4.16,30.24,30.24,29.96
-12.73,3.13,4.06,29.33,29.54,29.54
-12.40,3.16,3.92,31.71,31.71,31.99
-11.85,3.42,3.87,33.46,33.46,33.74
-11.05,3.82,3.85,32.27,32.27,32.27
-10.00,4.08,3.77,29.12,28.14,28.14
-9.40,3.84,3.67,25.27,25.06,25.06
-8.84,3.71,3.68,23.52,23.52,23.17
-7.55,3.66,3.50,21.35,21.35,21.07
-6.26,3.68,3.27,17.50,17.50,16.03
-4.91,3.78,3.14,12.32,12.32,12.32
-3.96,3.58,3.08,8.68,8.68,8.68
-3.21,3.40,3.07,8.89,8.89,9.17
-2.27,3.48,3.06,10.01,10.01,10.01
-0.78,3.78,2.96,9.73,9.73,9.52
0.52,4.19,2.95,7.21,7.21,7.21
1.98,4.64,2.89,1.96,1.96,1.12
3.41,4.81,2.69,-3.01,-3.01,-3.01
4.85,5.04,2.52,-8.82,-8.82,-8.82
6.25,5.25,2.46,-13.09,-13.72,-13.72
7.00,5.27,2.40,-19.32,-19.32,-21.70
7.91,5.09,2.30,-26.25,-26.25,-26.25
8.45,4.80,2.16,-28.49,-28.49,-28.49
8.72,4.41,2.14,-27.72,-27.72,-27.51
8.92,4.41,2.26,-24.36,-24.36,-24.36
8.96,4.66,2.45,-22.33,-21.56,-21.56
8.82,5.02,2.68,-20.02,-20.02,-19.60
8.32,5.34,2.99,-18.34,-18.34,-18.34
7.66,5.59,3.30,-16.73,-16.52,-16.52
6.63,5.54,3.40,-14.42,-13.93,-13.93
5.77,5.59,3.57,-10.29,-9.73,-9.73
5.20,5.91,3.76,-5.32,-5.32,-5.32
4.53,6.37,3.95,-3.50,-3.29,-3.29
3.96,6.68,4.17,-0.98,-0.98,-0.77
3.30,6.85,4.26,1.47,2.38,2.38
2.36,7.25,4.44,4.76,5.39,5.67
0.80,7.79,4.72,6.72,6.86,6.86
0.00,8.29,4.92,7.49,7.49,7.56
-0.68,9.01,5.14,7.35,7.07,6.86
-1.67,9.68,5.44,5.67,5.67,5.67
-2.07,10.00,5.53,4.55,4.55,4.41
-2.19,10.37,5.58,4.27,4.27,4.06
-1.79,10.53,5.51,3.22,3.22,3.22
-0.96,10.75,5.45,0.21,0.21,0.21
0.04,10.60,5.35,-3.08,-3.71,-3.71
0.76,10.24,5.17,-8.47,-8.47,-8.82
1.39,9.78,5.10,-11.20,-11.20,-11.55
1.85,8.98,5.09,-14.00,-14.00,-14.00
2.06,8.40,4.98,-12.95,-12.95,-12.53
2.09,7.80,4.88,-9.17,-9.17,-8.54
2.07,7.31,4.86,-4.76,-4.76,-4.13
2.23,7.07,4.75,1.61,1.61,1.61
2.66,7.09,4.77,4.20,4.20,4.20
3.22,7.11,4.69,5.53,5.53,5.53
3.51,7.00,4.63,6.16,6.30,6.30
3.83,6.99,4.58,7.14,7.14,7.14
4.34,7.11,4.48,6.72,6.72,6.58
4.85,7.23,4.40,4.27,4.27,3.85
5.06,7.35,4.41,0.42,0.42,-0.07
5.08,7.40,4.51,-3.57,-3.57,-3.57
5.14,7.15,4.38,-6.23,-6.23,-6.23
4.98,6.98,4.34,-5.95,-5.95,-5.95
4.58,6.77,4.38,-4.55,-3.92,-3.92
4.44,6.92,4.53,-1.96,-1.96,-1.54
4.11,7.17,4.69,-0.28,-0.28,-0.28
3.27,7.40,4.80,2.59,2.59,2.59
2.34,7.74,4.91,5.39,5.81,5.81
1.74,8.34,5.10,9.17,9.17,10.29
1.12,8.99,5.14,11.48,11.48,11.69
1.00,9.47,5.00,12.39,12.39,12.46
1.41,9.50,4.72,12.53,12.53,12.53
2.15,9.41,4.51,11.97,11.48,11.20
3.11,9.22,4.30,9.24,9.24,7.84
4.35,8.81,4.21,3.50,3.50,3.50
4.94,8.13,4.15,-2.52,-2.52,-2.52
5.34,7.28,4.11,-8.05,-8.75,-8.75
5.82,6.46,4.12,-12.95,-12.95,-12.95
6.40,5.44,3.93,-35.77,-18.34,-18.34
6.98,4.69,3.62,-20.79,-20.79,-21.21
7.56,4.07,3.23,-23.73,-23.73,-23.73
7.93,3.65,3.02,-25.69,-26.39,-26.39
8.04,3.32,2.82,-28.91,-29.82,-29.82
7.86,2.88,2.57,-32.27,-32.27,-32.41
7.38,2.46,2.33,-33.46,-33.46,-33.46
6.55,1.82,2.21,-32.34,-32.34,-32.34
5.68,1.15,2.09,-29.19,-29.19,-29.19
4.67,0.43,1.95,-26.88,-26.18,-26.18
3.60,-0.14,1.79,-25.13,-25.06,-25.06
2.44,-0.81,1.85,-26.67,-26.67,-27.65
0.98,-1.67,1.90,-32.34,-32.34,-34.30
-0.54,-3.25,1.68,-43.68,-43.68,-43.68
-5.20,-9.15,0.80,-61.11,-61.11,-61.11
-6.60,-11.56,0.73,-60.76,-60.48,-60.48
-8.08,-14.95,0.33,-59.71,-59.71,-59.15
-9.82,-18.31,-0.00,-57.26,-56.21,-56.21
-11.93,-21.79,0.13,-50.40,-49.49,-49.49
-15.69,-24.13,0.12,-42.00,-42.00,-41.09
-18.28,-24.30,-0.37,-26.53,-26.53,-26.53
-20.44,-20.57,-0.18,5.18,5.18,5.18
-22.53,-13.15,0.78,21.00,23.03,23.03
-24.66,-5.27,3.07,15.82,9.52,9.52
-27.46,-0.19,6.35,-17.01,-26.74,-26.74
-28.93,-1.90,8.18,-46.83,-53.34,-53.34
-27.75,-6.58,7.21,-53.48,-52.01,-48.23
-24.21,-10.20,5.24,-28.77,-25.62,-25.62
-20.00,-10.51,3.61,4.27,4.27,7.56
-15.58,-9.93,3.33,21.84,26.46,26.46
-12.23,-9.19,3.22,36.75,36.75,39.13
-10.29,-9.23,3.18,44.80,44.80,44.80
-9.40,-9.84,3.31,51.87,51.87,51.87
-9.12,-10.32,3.43,60.34,61.11,61.11
-9.31,-10.01,3.25,65.80,65.80,66.08
-9.76,-9.46,2.97,67.34,67.34,67.41
-10.88,-8.64,2.71,66.57,66.22,66.22
-11.69,-7.49,2.49,58.03,58.03,58.03
-12.39,-6.32,2.43,45.08,45.08,42.84
-12.57,-4.35,2.08,26.32,26.32,23.73
-12.34,-3.25,1.67,0.35,0.35,0.35
-11.83,-2.25,1.15,-20.02,-20.02,-20.02
-10.13,-1.56,0.52,-46.90,-47.95,-47.95
-9.42,-1.82,0.26,-52.71,-52.71,-52.78
-7.84,-1.33,0.18,-52.22,-51.59,-51.38
-5.50,-0.57,0.17,-49.49,-49.14,-49.14
-1.46,1.59,0.59,-42.14,-42.14,-42.14
-0.87,2.00,0.72,-37.45,-35.56,-35.56
-0.61,2.67,0.93,-29.05,-26.67,-26.67
0.01,3.60,1.01,-19.46,-17.50,-17.50
0.89,5.50,1.30,-13.93,-13.93,-13.93
1.57,6.95,1.83,-20.79,-20.79,-21.84
2.55,8.08,2.04,-31.78,-31.78,-31.78
2.85,8.44,2.42,-45.71,-45.71,-45.71
3.03,8.24,2.72,-52.36,-52.36,-52.36
2.92,7.81,2.99,-56.00,-56.84,-56.84
2.57,7.25,3.31,-56.91,-56.84,-56.42
1.92,6.71,3.61,-53.41,-53.41,-52.92
1.23,6.46,3.78,-48.86,-47.67,-47.67
0.44,6.14,3.82,-42.98,-41.16,-41.16
-0.95,5.71,3.90,-34.09,-33.04,-33.04
-1.51,5.75,3.87,-23.94,-23.94,-22.96
-2.94,6.14,3.88,-17.92,-17.92,-18.13
-3.42,6.22,3.88,-19.60,-19.60,-19.60
-3.68,6.14,3.64,-24.15,-24.15,-24.15
-4.11,6.28,3.89,-28.07,-28.84,-28.84
-4.95,5.64,4.13,-36.05,-36.05,-36.54
-5.60,5.21,4.11,-38.78,-39.27,-39.48
-5.79,4.79,4.05,-39.48,-39.06,-38.85
-5.83,4.54,4.10,-37.38,-36.96,-36.96
-5.79,4.25,4.11,-35.21,-35.21,-34.93
-5.83,4.00,4.19,-34.37,-34.37,-34.30
-6.60,3.20,4.25,-32.41,-32.41,-32.06
-6.71,2.75,4.21,-29.19,-29.19,-28.70
-6.74,2.08,4.09,-25.97,-24.99,-24.43
-7.04,1.71,4.10,-22.26,-22.12,-22.12
-7.66,1.04,4.17,-22.33,-22.33,-22.40
-8.07,0.46,4.11,-23.03,-23.03,-23.31
-7.72,-0.02,3.80,-23.52,-23.52,-23.73
-7.70,-1.22,3.77,-25.41,-25.41,-25.76
-8.36,-1.97,3.86,-27.37,-27.37,-28.14
-8.92,-3.27,3.82,-28.98,-28.98,-28.98
-9.08,-4.34,3.75,-28.14,-27.86,-27.86
-9.04,-5.01,3.52,-25.69,-25.62,-25.62
-9.05,-5.77,3.70,-25.13,-24.99,-24.99
-9.85,-6.76,3.80,-24.50,-24.36,-24.36
-10.42,-7.43,3.72,-20.93,-20.93,-20.23
-10.68,-7.70,3.90,-15.47,-15.47,-15.47
-11.50,-7.44,4.17,-13.30,-13.16,-13.16
-12.49,-7.02,4.05,-12.46,-12.46,-12.46
-13.44,-6.60,3.98,-10.22,-9.24,-9.24
-14.14,-5.93,4.35,-6.65,-6.65,-6.30
-14.53,-4.92,4.65,-7.00,-7.00,-7.00
-14.41,-4.38,4.43,-11.34,-11.34,-11.34
-13.97,-4.53,4.08,-10.85,-10.85,-10.85
-13.33,-5.20,3.65,-1.96,-1.96,-1.96
-12.30,-5.70,3.29,7.21,8.96,8.96
-11.39,-5.87,2.75,22.33,22.33,23.73
-10.41,-5.80,2.57,28.77,30.52,31.08
-9.60,-5.60,2.46,33.46,33.46,33.95
-8.85,-5.34,2.30,32.62,32.62,32.62
-8.46,-5.13,2.17,26.74,26.74,26.74
-8.20,-5.08,1.93,16.80,16.80,16.80
-8.01,-5.07,1.89,10.64,10.64,10.64
-7.85,-5.19,1.79,1.54,1.54,1.54
-7.77,-5.34,1.77,-2.59,-2.59,-3.08
-7.68,-5.53,1.75,-5.81,-5.81,-5.81
-7.55,-5.58,1.69,-5.88,-5.60,-5.60
-7.35,-5.48,1.71,-4.41,-4.13,-4.13
-7.26,-5.22,1.85,-2.17,-2.17,-2.03
-7.14,-4.98,1.98,-1.61,-1.61,-1.61
-7.07,-4.82,2.21,-2.10,-2.10,-2.10
-7.03,-4.80,2.26,-2.80,-2.80,-2.80
-7.08,-4.81,2.33,-3.15,-3.01,-3.01
-7.24,-4.77,2.44,-3.15,-3.29,-3.29
-7.52,-4.74,2.56,-4.55,-4.55,-4.55
-7.76,-4.85,2.64,-5.81,-5.88,-5.88
-7.93,-4.96,2.59,-5.81,-5.53,-5.53
-8.11,-4.83,2.50,-4.69,-4.69,-4.69
-8.26,-4.49,2.47,-4.48,-4.48,-4.48
-8.46,-4.26,2.49,-5.04,-5.53,-5.53
-8.66,-4.17,2.48,-6.23,-6.30,-6.51
-8.80,-4.18,2.36,-6.30,-5.95,-5.95
-8.90,-4.36,2.26,-3.71,-3.71,-3.43
-8.98,-4.44,2.22,-0.56,-0.14,-0.14
-9.06,-4.46,2.22,2.17,2.45,2.45
-9.12,-4.35,2.23,3.71,3.85,3.85
-9.07,-4.28,2.16,4.76,4.76,4.83
-9.09,-4.17,2.14,4.76,4.48,4.48
-9.06,-4.09,2.17,3.50,3.01,2.66
-9.02,-3.96,2.16,0.98,0.98,-0.14
-9.03,-3.97,2.17,-1.82,-1.82,-2.10
-8.94,-4.07,2.10,-3.71,-3.71,-3.64
-8.91,-4.14,2.13,-3.92,-3.92,-3.92
-8.92,-4.26,2.14,-2.66,-2.52,-2.52
-8.86,-4.35,2.22,-0.84,-0.84,-0.84
-8.76,-4.32,2.22,1.89,1.89,1.89
-8.68,-4.15,2.22,3.15,3.36,3.36
-8.56,-3.96,2.25,3.50,3.50,3.29
-8.54,-3.87,2.26,2.66,2.66,2.24
-8.50,-3.87,2.22,1.54,1.54,1.12
-8.49,-3.98,2.24,0.28,0.28,-0.21
-8.54,-4.11,2.26,-0.77,-0.77,-0.91
-8.49,-4.24,2.25,-0.84,-0.84,-0.84
-8.44,-4.36,2.20,0.70,0.70,0.70
-8.39,-4.35,2.21,2.03,2.03,2.45
-8.32,-4.23,2.22,3.15,3.15,3.08
-8.26,-4.09,2.22,3.08,3.08,2.94
-8.16,-4.00,2.28,2.17,2.17,1.89
-8.19,-4.07,2.30,1.19,1.19,1.19
-8.14,-4.12,2.30,0.84,0.84,0.84
-8.18,-4.14,2.29,1.19,1.19,1.26
-8.21,-4.20,2.31,1.75,1.75,1.75
-8.17,-4.26,2.35,2.59,2.59,2.59
-8.04,-4.26,2.35,3.15,3.15,3.15
-7.94,-4.32,2.34,3.43,3.57,3.57
-7.82,-4.47,2.30,3.64,3.57,3.57
-7.70,-4.57,2.30,3.43,3.43,3.29
-7.55,-4.72,2.27,2.80,2.45,2.31
-7.37,-4.93,2.21,1.19,0.77,0.77
-7.16,-5.11,2.11,-0.98,-1.61,-1.61
-6.97,-5.26,1.99,-4.48,-5.04,-5.04
-7.01,-5.57,1.95,-8.61,-8.61,-10.36
-7.20,-6.06,1.94,-14.28,-14.28,-14.28
-7.36,-6.25,1.86,-18.97,-18.97,-18.97
-7.76,-6.22,1.76,-21.98,-21.98,-21.98
-8.23,-6.38,1.59,-23.24,-23.24,-23.24
-8.81,-6.56,1.66,-23.24,-23.24,-23.24
-9.44,-6.71,1.79,-20.93,-20.93,-20.93
-10.11,-6.86,1.77,-14.84,-14.84,-14.84
-10.81,-7.04,1.83,-8.75,-8.75,-8.75
-11.40,-7.03,1.91,-0.98,-0.98,-0.98
-12.01,-6.92,2.02,7.35,7.35,7.35
-12.67,-6.68,2.23,13.44,14.14,15.40
-13.10,-6.14,2.38,17.64,18.13,18.41
-13.34,-5.53,2.54,18.76,18.76,18.62
-13.63,-5.31,2.65,16.17,16.17,15.82
-13.88,-5.53,2.54,14.21,14.21,14.21
-14.36,-6.11,2.42,14.77,14.77,14.77
-14.62,-6.44,2.25,18.41,18.41,18.97
-14.33,-6.43,2.44,22.75,22.75,22.75
-14.26,-6.33,2.48,25.20,25.20,25.69
-14.28,-6.02,2.43,29.47,30.17,30.17
-13.79,-5.14,2.45,35.77,36.61,36.61
-12.94,-3.67,2.31,41.79,41.79,41.86
-12.16,-2.78,2.35,40.88,40.88,40.39
-11.76,-1.92,2.45,32.48,32.48,31.43
-11.08,-1.79,2.24,26.11,26.11,25.55
-10.42,-1.88,2.01,23.38,23.38,23.17
-9.28,-1.49,1.86,20.79,20.79,20.58
-8.11,-1.13,1.75,17.85,17.85,17.57
-7.20,-0.63,1.62,15.61,15.61,15.26
-5.88,0.24,1.53,12.53,12.53,12.18
-4.88,0.60,1.44,10.57,10.57,10.36
-3.87,1.19,1.46,9.94,9.94,10.08
-2.94,1.94,1.58,9.80,9.80,9.94
-1.83,2.69,1.72,10.15,10.15,10.15
-0.93,3.69,1.94,9.66,9.66,9.66
-0.11,4.95,2.46,8.26,8.26,8.26
0.28,5.50,2.80,7.70,7.70,7.70
0.74,6.37,3.09,7.91,7.91,7.91
1.38,7.00,3.10,8.40,8.40,8.40
2.08,7.44,3.04,9.17,9.17,9.17
2.49,7.98,3.22,6.37,6.37,6.37
2.88,8.22,3.25,2.73,2.73,2.73
2.88,8.12,3.23,0.77,0.77,0.77
2.69,7.86,3.07,-0.14,-0.21,-0.21
2.44,7.80,3.15,0.00,-0.14,-0.14
2.01,7.69,3.15,0.00,0.21,0.35
1.75,7.80,3.27,0.98,0.98,0.98
1.58,8.01,3.57,0.28,0.21,0.21
1.56,8.32,3.72,-0.84,-1.33,-1.54
1.65,8.47,3.92,-2.87,-3.43,-3.71
1.77,8.64,4.10,-5.32,-5.32,-6.16
1.90,8.76,4.30,-7.98,-7.98,-8.40
1.89,8.76,4.47,-10.78,-10.78,-11.20
1.83,8.72,4.54,-13.65,-13.65,-13.86
1.99,8.73,4.62,-15.19,-15.54,-15.54
2.24,8.68,4.69,-17.43,-17.43,-17.64
2.63,8.32,4.61,-17.78,-17.78,-17.71
2.73,7.93,4.41,-14.84,-14.84,-14.84
2.63,7.81,4.46,-12.11,-11.55,-11.55
2.56,7.96,4.61,-10.01,-10.01,-9.94
2.82,8.04,4.60,-9.80,-9.73,-9.73
3.03,7.98,4.58,-9.31,-9.31,-9.31
3.37,7.80,4.46,-7.28,-7.28,-7.28
3.67,7.68,4.45,-5.81,-5.32,-5.32
4.37,7.36,4.35,-2.52,-2.38,-2.31
4.49,7.19,4.35,-1.54,-1.54,-1.54
4.65,7.06,4.31,-0.14,-0.14,-0.14
4.84,6.88,4.26,0.49,0.42,0.42
4.89,6.82,4.32,0.35,0.35,0.35
4.93,6.64,4.31,-0.07,-0.07,-0.07
4.75,6.53,4.25,0.49,0.35,0.35
4.58,6.47,4.26,0.77,0.84,0.84
4.51,6.53,4.27,0.77,0.56,0.56
4.45,6.62,4.31,-0.56,-0.56,-0.70
4.30,6.62,4.32,-2.80,-2.80,-2.80
4.09,6.44,4.24,-3.36,-3.43,-3.43
3.97,6.17,4.00,-3.36,-3.36,-3.43
4.00,5.86,3.80,-4.48,-4.48,-4.48
4.19,5.66,3.70,-5.60,-5.60,-5.60
4.09,5.37,3.61,-8.26,-8.54,-8.54
3.31,4.87,3.49,-10.43,-10.43,-10.43
2.53,4.21,3.34,-10.92,-10.92,-10.92
1.68,3.42,3.26,-10.50,-10.43,-10.43
1.04,2.94,3.23,-12.18,-12.18,-12.53
0.00,2.08,3.35,-15.26,-15.26,-15.82
-1.02,1.20,3.51,-19.67,-19.67,-20.72
-2.55,-0.27,3.52,-24.01,-24.01,-25.20
-3.59,-1.81,3.64,-30.03,-30.03,-30.03
-4.09,-3.07,3.86,-37.10,-38.36,-38.36
-4.46,-4.42,4.11,-49.42,-51.10,-51.10
-4.91,-6.71,4.12,-61.60,-63.07,-63.07
-5.36,-9.01,4.20,-74.27,-75.53,-75.53
-5.69,-11.84,4.05,-85.89,-87.50,-87.50
-5.56,-14.56,3.80,-95.27,-96.67,-96.67
-5.33,-17.57,3.57,-107.10,-107.10,-107.1
-5.55,-20.92,3.30,-109.76,-109.48,-109.4
-5.53,-22.91,2.82,-105.84,-104.79,-104.7
-5.91,-23.66,2.07,-96.60,-93.45,-93.45
-6.73,-23.71,1.72,-89.04,-88.34,-86.45
-8.08,-24.11,1.31,-75.81,-75.81,-73.85
-8.87,-23.68,1.12,-56.84,-56.84,-56.84
-10.94,-22.19,1.52,-49.84,-48.02,-48.02
-12.51,-18.34,2.86,-42.56,-42.14,-42.14
-13.33,-15.99,4.64,-38.43,-38.43,-38.43
-13.53,-14.96,4.98,-29.33,-29.33,-29.33
-13.36,-14.37,4.95,-10.99,-10.99,-10.99
-12.93,-12.86,5.37,17.92,17.92,17.92
-12.27,-10.53,5.63,31.64,31.64,31.64
-11.37,-9.36,5.47,43.05,43.96,43.96
-10.46,-8.39,5.32,47.25,47.81,47.81
-9.52,-7.61,4.91,45.50,45.50,45.50
-8.76,-7.65,4.44,39.06,39.06,39.06
-8.07,-8.09,3.91,29.68,29.68,29.68
-7.32,-8.67,3.57,24.50,22.82,22.82
-6.52,-9.65,3.07,16.73,15.82,15.82
-6.02,-10.28,2.70,8.68,8.68,7.98
-5.52,-10.83,2.51,3.01,3.01,3.01
-5.21,-11.63,2.34,-0.49,-0.49,-1.05
-4.91,-12.64,2.11,-5.39,-5.39,-5.88
-4.50,-12.87,2.30,-9.73,-9.73,-10.36
-4.13,-12.58,2.42,-15.05,-15.82,-15.82
-3.96,-12.47,2.37,-24.57,-24.57,-25.48
-3.73,-12.28,2.31,-29.75,-31.29,-32.06
-3.54,-11.81,2.03,-36.68,-36.68,-37.52
-3.32,-11.27,1.97,-46.13,-46.13,-46.13
-3.06,-11.05,2.16,-52.78,-52.78,-52.78
-2.88,-10.94,2.08,-56.49,-56.63,-56.63
-2.67,-10.83,1.98,-56.07,-56.07,-55.79
-2.41,-10.65,1.86,-51.87,-51.87,-51.03
-1.08,-9.48,1.98,-13.79,-13.79,-13.79
-0.81,-9.17,2.12,0.21,2.10,5.60
-0.56,-8.51,2.29,13.51,14.70,14.70
-0.47,-7.63,2.76,23.80,24.43,24.43
-0.47,-7.11,3.11,26.67,26.67,26.67
-0.80,-6.80,3.17,25.69,25.41,25.41
-1.35,-6.48,3.15,21.42,20.86,20.86
-1.98,-4.92,3.27,14.35,14.35,14.35
-2.84,-5.91,3.30,9.10,9.10,9.10
-3.63,-5.88,3.41,0.42,0.42,0.42
-4.45,-5.94,3.37,-4.90,-4.90,-4.90
-5.17,-6.30,3.15,-7.35,-7.07,-7.07
-5.74,-6.86,3.01,-5.04,-4.41,-3.29
-6.25,-7.39,2.90,1.61,1.61,1.61
-6.57,-7.81,2.85,8.40,9.31,9.31
-6.82,-8.11,2.82,13.79,13.79,13.79
-6.98,-8.47,2.71,19.32,19.32,19.32
-6.98,-8.55,2.67,24.50,24.50,24.99
-7.16,-8.75,2.55,25.13,25.13,25.13
-7.29,-8.43,2.54,22.54,22.54,22.54
-7.23,-8.15,2.47,19.04,18.69,18.69
-7.07,-8.05,2.27,15.54,15.26,15.26
-7.07,-8.01,2.11,13.44,12.53,12.53
-6.93,-8.16,1.86,11.48,10.99,10.99
-6.81,-8.24,1.80,10.15,9.87,9.45
-6.71,-8.26,1.83,7.42,7.42,7.42
-6.63,-8.26,1.66,5.81,5.81,5.67
-6.50,-8.06,1.50,4.83,4.83,4.69
-6.47,-8.01,1.46,3.15,3.15,2.87
-6.44,-8.04,1.52,0.84,-0.28,-0.70
-6.30,-8.16,1.69,-3.71,-3.71,-5.67
-6.25,-8.37,1.76,-9.52,-9.52,-10.29
-6.20,-8.48,1.77,-15.82,-15.82,-18.27
-6.10,-8.71,1.76,-23.31,-23.31,-23.31
-5.93,-9.01,1.76,-28.98,-28.98,-28.98
-5.84,-9.18,1.78,-32.90,-32.90,-32.90
-5.72,-9.41,1.81,-53.55,-35.98,-35.98
-5.56,-9.65,1.90,-37.66,-37.66,-37.66
-5.41,-9.82,2.10,-37.45,-37.31,-37.31
-5.28,-9.83,2.23,-36.47,-36.47,-36.33
-5.15,-9.78,2.37,-35.84,-35.84,-35.63
-4.97,-9.70,2.40,-35.21,-35.21,-35.00
-4.82,-9.61,2.60,-33.67,-33.67,-33.67
-4.74,-9.49,2.73,-32.48,-32.48,-32.48
-4.55,-8.93,3.06,-20.58,-19.88,-19.88
-4.49,-8.61,3.10,-14.91,-14.28,-14.28
-4.42,-8.10,3.23,-9.66,-8.89,-8.89
-4.39,-7.65,3.40,-4.20,-4.20,-3.71
-4.32,-7.20,3.43,1.05,1.05,1.68
-4.23,-6.96,3.44,4.76,4.76,4.76
-4.12,-6.87,3.35,9.94,10.71,10.71
-4.02,-6.92,3.21,14.91,15.82,15.82
-3.99,-6.91,3.06,22.05,22.05,22.05
-4.08,-6.91,2.85,28.42,28.42,28.42
-4.24,-6.85,2.61,34.37,34.93,34.93
-4.53,-6.75,2.41,37.45,37.87,37.87
-4.92,-6.61,2.14,38.92,38.92,38.85
-5.50,-6.55,1.96,38.29,37.87,37.45
-6.14,-6.38,1.82,33.88,33.88,33.88
-6.57,-6.30,1.62,26.74,25.90,25.90
-6.98,-6.54,1.47,21.70,19.67,19.67
-7.33,-6.91,1.28,17.22,16.94,16.45
-7.72,-7.01,1.11,15.89,15.75,15.75
-8.04,-6.78,0.99,14.63,14.49,14.49
-8.21,-6.55,0.98,11.90,11.90,11.41
-8.47,-6.34,1.00,8.89,8.89,8.61
-8.66,-6.21,0.98,5.88,5.88,5.67
-8.80,-6.01,1.00,3.92,3.92,3.92
-8.81,-5.89,1.07,0.77,0.35,0.35
-8.83,-5.85,1.16,-1.96,-2.31,-2.31
-8.79,-5.84,1.39,-5.53,-5.88,-5.88
-8.66,-5.99,1.54,-9.52,-9.52,-9.52
-8.53,-6.43,1.66,-11.83,-11.83,-12.04
-8.39,-6.70,1.87,-12.67,-12.60,-12.60
-8.22,-6.99,2.04,-11.69,-11.69,-11.69
-8.05,-7.13,2.21,-10.99,-10.99,-11.06
-7.85,-7.16,2.48,-10.85,-10.85,-10.85
-7.66,-7.31,2.54,-10.43,-10.15,-10.15
-7.53,-7.36,2.63,-9.73,-9.59,-9.59
-7.48,-7.27,2.77,-9.24,-9.24,-9.17
-7.38,-7.19,2.89,-7.49,-7.49,-7.35
-7.30,-7.13,2.86,-4.97,-4.97,-4.69
-7.32,-6.98,2.85,-2.66,-2.66,-2.38
-7.33,-6.89,2.83,-0.21,-0.21,-0.21
-7.31,-6.83,2.76,2.03,2.03,2.03
-7.37,-6.80,2.67,4.83,4.83,4.83
-7.45,-6.60,2.61,7.21,7.21,7.21
-7.41,-6.49,2.60,9.80,10.08,10.08
-7.36,-6.29,2.61,11.13,11.06,11.06
-7.28,-5.98,2.59,11.27,11.27,11.13
-7.15,-5.72,2.52,10.64,10.64,10.71
-7.02,-5.60,2.48,9.87,9.87,9.87
-6.88,-5.47,2.45,9.38,9.17,9.17
-6.66,-5.22,2.50,8.33,8.33,8.19
-6.44,-5.12,2.44,7.21,7.21,7.21
-6.18,-5.00,2.44,6.51,6.44,6.44
-5.96,-4.98,2.42,5.95,5.88,5.88
-5.83,-5.08,2.36,5.74,5.74,5.74
-5.80,-5.04,2.34,4.83,4.83,4.83
-5.87,-5.19,2.30,3.50,3.43,3.43
-6.01,-5.53,2.28,2.45,2.31,2.31
-6.09,-5.57,2.34,0.07,0.07,0.07
-6.21,-5.65,2.40,-3.64,-3.64,-3.64
-6.43,-5.98,2.45,-8.12,-8.12,-8.12
-6.60,-6.26,2.49,-9.17,-9.17,-9.17
-6.79,-6.21,2.48,-9.24,-9.24,-9.24
-7.00,-5.95,2.50,-9.66,-9.87,-9.87
-7.33,-5.62,2.59,-11.41,-11.41,-11.41
-7.70,-5.52,2.68,-13.37,-13.58,-13.58
-8.20,-5.65,2.65,-14.00,-13.93,-13.93
-8.69,-5.89,2.57,-12.04,-11.69,-11.69
-9.06,-5.97,2.54,-9.87,-9.87,-9.73
-9.56,-6.12,2.40,-7.70,-7.70,-6.72
-9.68,-6.10,2.37,-5.04,-5.04,-4.27
-9.70,-5.95,2.40,-3.57,-3.57,-3.57
-9.62,-5.92,2.37,-4.06,-4.06,-4.06
-9.48,-5.91,2.42,-4.62,-4.97,-4.97
-9.25,-5.87,2.43,-5.88,-5.88,-6.16
-9.01,-6.01,2.43,-6.65,-6.65,-6.72
-8.61,-6.30,2.44,-6.51,-6.44,-6.44
-8.37,-6.51,2.41,-4.27,-4.27,-3.85
-8.01,-6.57,2.43,-1.68,-1.68,-1.47
-7.15,-6.14,2.40,-1.05,-1.26,-1.26
-6.85,-6.01,2.35,-2.17,-2.38,-2.38
-6.68,-5.99,2.19,-3.29,-3.29,-3.36
-6.52,-5.83,2.14,-4.20,-4.20,-4.34
-6.40,-5.69,2.10,-5.67,-5.67,-5.67
-6.40,-5.62,2.19,-6.51,-6.58,-6.58
-6.54,-5.74,2.15,-5.88,-5.18,-5.18
-6.80,-5.65,2.16,-2.03,-1.54,-1.54
-7.15,-5.25,2.41,0.14,0.14,0.14
-7.63,-4.87,2.56,-1.33,-1.75,-1.75
-8.10,-4.88,2.71,-4.34,-4.34,-4.55
-9.78,-4.93,2.75,-4.97,-5.04,-5.11
-9.10,-5.10,2.75,-5.39,-5.39,-5.53
-9.90,-5.42,2.74,-6.16,-6.16,-6.16
-10.57,-5.80,2.97,-4.97,-4.97,-4.83
-11.53,-5.72,3.17,-2.17,-2.17,-2.17
-12.06,-5.38,3.49,1.33,1.68,1.68
-12.45,-5.08,3.62,3.01,3.01,3.01
-12.68,-5.08,3.71,2.59,2.59,2.52
-12.91,-5.36,3.73,2.59,2.80,3.08
-13.15,-5.86,3.74,5.46,5.95,5.95
-13.46,-6.56,3.73,10.71,12.04,12.81
-13.87,-7.48,3.80,16.03,16.03,17.71
-13.85,-7.48,3.75,23.38,23.38,23.38
-13.48,-7.14,3.75,29.47,29.96,29.96
-13.50,-6.67,4.00,29.33,29.33,28.98
-13.35,-6.53,4.00,28.14,28.14,28.14
-13.36,-6.65,3.91,32.62,32.62,33.46
-13.15,-6.12,3.83,36.82,37.94,38.50
-12.68,-5.32,3.66,39.76,39.76,39.90
-11.62,-3.44,3.31,37.45,37.45,36.89
-9.86,-2.44,3.01,30.45,30.45,29.19
-7.70,-1.53,2.46,20.58,20.58,19.53
-5.39,-0.95,2.12,13.23,10.78,9.66
-3.51,-0.66,1.68,4.34,4.34,2.03
-2.14,-0.40,1.15,0.07,0.07,-0.14
-1.05,0.00,0.77,1.96,1.96,2.52
0.04,0.31,0.74,6.37,6.37,7.07
1.11,1.07,0.76,11.48,11.48,12.18
2.43,1.97,0.93,15.12,15.12,15.40
3.69,3.31,1.30,17.29,17.29,17.29
5.09,4.78,1.54,15.54,15.54,14.21
7.11,6.71,2.03,5.46,5.46,5.46
8.39,7.87,2.52,-11.48,-13.65,-13.65
9.25,8.50,2.79,-25.06,-32.06,-32.06
9.37,8.40,3.10,-42.63,-44.59,-48.16
8.88,7.89,3.35,-55.58,-55.58,-58.87
7.78,7.00,3.65,-61.95,-61.95,-62.09
6.43,6.03,4.20,-60.13,-60.13,-59.64
4.73,5.48,4.74,-53.41,-53.41,-52.22
2.77,4.93,5.19,-44.24,-44.24,-42.91
1.16,4.80,5.89,-28.84,-28.84,-28.84
-0.68,4.68,6.30,-18.41,-14.91,-14.91
-2.71,4.94,6.87,-4.83,-4.83,-1.82
-4.35,5.63,7.10,9.52,9.52,9.52
-5.59,6.42,7.50,17.99,18.76,18.76
-6.55,7.37,7.51,21.63,21.98,21.98
-6.76,8.25,7.15,24.15,24.15,24.15
-6.25,8.77,6.72,24.78,24.78,24.78
-5.01,9.72,6.26,22.89,22.89,22.40
-3.80,10.26,5.85,15.96,15.96,15.96
-2.90,10.38,5.68,9.87,9.87,9.87
-2.51,10.16,5.54,2.73,2.73,2.73
-2.14,9.89,5.47,-1.19,-1.19,-1.19
-1.64,9.28,5.28,-5.04,-5.25,-5.25
-1.22,8.99,5.23,-6.30,-6.30,-6.58
-0.97,8.52,5.08,-6.30,-6.30,-6.30
-0.69,8.15,5.02,-5.53,-5.18,-5.18
-0.30,7.75,4.95,-4.34,-4.34,-3.92
0.31,7.38,4.78,-3.01,-3.01,-3.01
0.96,7.27,4.74,-2.31,-2.17,-2.17
1.64,7.07,4.64,-2.17,-2.31,-2.31
2.11,7.08,4.77,-3.36,-3.36,-3.36
2.35,6.92,4.98,-5.67,-5.67,-5.67
2.38,6.73,5.15,-7.28,-7.28,-7.28
2.04,6.67,5.36,-7.07,-7.07,-7.07
1.52,6.47,5.52,-5.53,-5.25,-5.25
1.08,6.31,5.51,-3.22,-2.87,-2.87
0.73,6.30,5.57,0.91,0.91,1.47
0.16,6.43,5.61,3.64,4.62,5.11
-0.51,6.53,5.48,7.77,7.77,9.38
-1.25,6.73,5.30,13.02,13.02,13.02
-1.88,7.10,5.15,15.96,15.96,15.96
-2.58,7.29,5.00,16.45,16.45,16.45
-3.56,7.50,4.85,15.82,15.82,15.82
-4.15,7.76,4.81,13.09,12.60,12.60
-4.66,8.08,4.70,10.29,9.87,9.87
-5.27,8.37,4.65,5.11,5.11,4.48
-5.80,8.71,4.74,1.40,0.35,-0.28
-6.47,8.92,4.82,-2.17,-2.17,-3.01
-7.21,9.11,4.96,-4.20,-4.20,-4.97
-7.53,9.25,5.01,-5.95,-5.95,-6.37
-7.28,9.21,5.08,-6.09,-6.09,-6.09
-6.65,9.45,5.27,-6.65,-6.65,-6.65
-5.77,9.67,5.32,-9.24,-9.24,-9.24
-4.82,9.53,5.29,-14.77,-14.77,-14.77
-3.94,9.08,5.27,-17.78,-18.76,-18.76
-3.08,8.57,5.23,-20.93,-20.93,-21.56
-2.26,7.82,5.17,-23.73,-23.73,-23.73
-1.48,7.43,5.14,-24.57,-24.57,-24.57
0.28,6.17,4.88,-21.07,-20.65,-20.65
1.11,5.58,4.76,-18.06,-17.50,-17.50
1.72,5.12,4.53,-12.32,-12.32,-11.55
2.38,4.77,4.43,-8.26,-8.26,-6.37
2.96,4.50,4.19,-3.64,-3.64,-3.08
3.49,4.25,3.93,-0.28,-0.28,-0.14
3.80,3.98,3.76,0.28,0.28,0.28
3.79,3.71,3.65,-0.91,-0.91,-0.91
3.60,3.18,3.46,-4.83,-4.83,-4.83
3.22,2.82,3.46,-9.45,-9.45,-9.45
2.34,2.21,3.36,-14.77,-14.77,-14.77
1.28,1.22,3.35,-19.88,-19.88,-19.88
-0.35,-0.00,3.11,-26.04,-26.04,-26.04
-1.90,-1.62,2.92,-32.34,-32.83,-32.83
-3.60,-3.45,2.79,-34.23,-34.23,-34.23
-5.97,-5.00,2.68,-33.04,-32.62,-32.62
-7.49,-6.66,2.64,-30.73,-30.17,-30.17
-9.30,-8.57,2.59,-24.36,-24.36,-23.66
-12.42,-10.65,2.60,-19.46,-19.46,-18.69
-13.62,-11.68,2.56,-10.22,-10.22,-10.22
-14.16,-11.93,2.45,-2.45,-2.45,-2.45
-15.52,-12.05,2.27,3.64,3.64,3.64
-15.63,-10.74,2.21,3.71,3.71,3.71
-15.76,-9.14,2.02,0.84,0.07,-1.61
-15.54,-6.72,2.19,-9.52,-10.85,-10.85
-15.40,-4.91,2.73,-23.03,-23.03,-23.03
-15.88,-3.74,3.57,-36.40,-37.94,-37.94
-16.52,-3.25,4.25,-44.10,-44.10,-44.66
-17.02,-3.60,4.64,-41.79,-41.79,-41.79
-16.95,-4.07,4.58,-30.38,-30.38,-25.41
-16.72,-3.95,4.57,-9.94,-9.94,-9.94
-16.27,-3.17,4.60,7.77,7.77,7.77
-15.75,-2.66,4.45,12.74,12.74,12.74
-15.40,-2.48,4.55,11.48,11.48,11.48
-15.17,-2.73,4.68,7.63,7.63,6.86
-14.92,-3.26,4.48,-0.21,-0.21,-0.21
-14.42,-4.06,4.25,-3.08,-3.57,-3.57
-14.07,-4.95,4.07,-3.92,-3.92,-3.78
-14.06,-5.88,4.14,-2.94,-2.94,-2.94
-13.59,-6.81,3.81,3.01,3.01,3.01
-11.60,-6.51,3.03,16.24,16.94,16.94
-10.57,-5.63,2.63,18.27,18.27,18.06
-9.28,-4.80,2.37,15.75,14.49,13.65
-8.02,-4.25,2.08,9.87,9.87,7.49
-6.82,-3.91,1.75,3.71,3.71,3.01
-5.72,-3.59,1.59,-3.57,-3.57,-4.27
-4.66,-3.44,1.48,-7.77,-9.17,-9.80
-3.61,-3.20,1.33,-12.81,-13.93,-14.49
-2.60,-3.04,1.26,-16.73,-16.73,-17.64
-0.45,-2.96,1.45,-15.12,-15.12,-15.12
-0.01,-2.90,1.67,-12.04,-12.04,-12.04
0.15,-2.76,1.98,-10.22,-10.22,-10.22
0.13,-2.85,2.17,-11.06,-12.32,-12.32
-0.29,-3.00,2.45,-16.10,-17.01,-19.25
-1.04,-3.49,2.64,-25.83,-27.30,-27.30
-2.24,-4.62,2.97,-42.21,-44.10,-44.10
-3.64,-5.57,3.17,-55.93,-57.54,-57.54
-5.58,-7.42,3.13,-66.64,-67.90,-67.90
-7.11,-9.20,2.97,-74.41,-74.41,-74.41
-9.06,-10.55,2.73,-70.77,-70.77,-70.77
-11.72,-11.58,2.31,-39.34,-39.34,-39.34
-12.47,-10.60,2.28,-27.16,-23.31,-23.31
-13.09,-9.36,2.61,-13.16,-13.16,-10.22
-13.62,-7.35,2.98,-3.15,-3.15,-2.59
-13.69,-4.91,3.11,-15.96,-17.57,-17.57
-13.27,-5.21,2.86,-21.42,-21.42,-21.98
-12.59,-5.55,2.44,-22.75,-22.75,-22.75
-11.64,-6.05,2.15,-20.79,-20.79,-20.79
-10.63,-6.59,1.92,-13.30,-13.30,-13.30
-9.63,-6.86,1.86,-5.25,-5.25,-5.25
-8.80,-6.84,1.80,4.48,4.48,4.48
-8.20,-6.67,1.82,12.74,12.74,12.74
-7.69,-6.40,1.84,14.84,14.98,14.98
-7.30,-6.16,1.94,14.07,14.07,14.07
-7.17,-6.12,2.00,9.59,8.96,8.96
-6.97,-6.19,1.99,5.67,3.64,3.64
-6.94,-6.23,1.92,-0.84,-1.40,-1.40
-7.03,-6.34,1.85,-4.13,-4.13,-4.13
-7.03,-6.54,1.69,-4.90,-4.90,-4.90
-7.10,-6.74,1.59,-1.96,-1.96,-1.96
-7.16,-6.70,1.56,1.19,1.19,1.19
-7.13,-6.50,1.59,3.15,3.64,3.64
-7.11,-6.34,1.56,5.11,5.11,5.67
-6.92,-6.21,1.52,7.91,8.33,8.33
-6.83,-6.07,1.56,10.92,10.92,10.92
-6.67,-5.90,1.61,11.97,11.97,11.97
-6.49,-5.88,1.74,11.62,11.62,11.55
-6.39,-6.06,1.86,10.50,10.50,10.57
-6.22,-6.11,1.89,10.43,10.29,10.29
-6.14,-6.30,2.00,10.01,10.01,10.01
-6.04,-6.42,2.07,9.73,9.73,9.80
-5.97,-6.36,2.19,8.82,8.82,8.54
-5.96,-6.27,2.30,6.72,5.81,5.18
-5.94,-6.32,2.38,2.73,2.73,1.33
-6.14,-6.57,2.34,-0.91,-0.91,-0.91
-6.26,-6.63,2.35,-0.98,-0.98,-0.98
-6.53,-6.77,2.35,-0.70,-0.70,-0.70
-6.81,-6.85,2.16,0.56,0.77,0.77
-7.15,-7.00,2.02,2.94,3.29,3.29
-7.64,-6.98,1.91,5.04,5.25,5.25
-9.21,-6.66,1.68,6.23,6.23,6.23
-9.95,-6.53,1.71,6.30,6.30,6.30
-10.66,-6.33,1.83,5.88,5.53,5.53
-11.47,-6.60,1.94,4.69,4.83,4.83
-12.06,-7.25,1.93,6.09,6.09,6.09
-12.65,-7.62,2.05,10.01,10.01,10.01
-13.10,-7.81,2.20,11.97,11.97,11.97
-13.46,-7.80,2.41,11.48,11.48,11.48
-13.66,-7.89,2.52,10.64,10.22,10.22
-13.99,-8.52,2.79,8.61,8.61,8.61
-14.38,-9.18,2.84,8.82,8.82,8.82
-14.89,-10.25,2.94,13.16,13.16,13.16
-15.11,-10.18,3.01,18.69,18.69,20.51
-14.92,-7.79,3.47,16.45,16.45,15.26
-14.19,-6.88,3.35,9.59,7.28,6.09
-13.99,-6.88,3.11,0.49,0.49,-2.17
-12.00,-6.88,2.21,-4.55,-4.55,-4.55
-10.58,-5.70,1.81,-3.43,-3.43,-3.43
-8.65,-5.00,1.57,-5.74,-5.74,-5.74
-6.99,-4.10,1.29,-9.31,-10.43,-10.43
-4.92,-3.35,1.08,-13.02,-13.09,-13.09
-3.28,-2.90,0.72,-9.66,-9.66,-9.03
0.27,-0.51,0.71,13.51,13.51,13.51
1.27,0.66,0.87,21.91,21.91,21.91
2.21,2.08,1.19,29.89,29.89,29.89
3.20,3.71,1.43,31.57,31.29,31.29
4.40,5.23,1.76,29.19,29.19,29.19
5.51,6.46,2.01,20.30,18.97,18.97
6.81,7.41,2.20,7.42,7.42,7.42
7.56,8.08,2.47,-10.01,-10.01,-11.83
8.02,8.40,2.70,-23.03,-23.03,-24.57
7.81,7.93,2.83,-33.67,-34.51,-34.51
7.00,7.20,2.94,-38.29,-38.29,-38.29
6.02,6.54,3.06,-37.66,-36.96,-36.96
4.61,5.99,3.16,-33.81,-33.25,-33.25
3.63,5.82,3.36,-30.03,-30.03,-29.89
2.29,5.85,3.48,-30.38,-30.87,-31.15
0.61,5.81,3.60,-33.11,-33.95,-34.37
-2.06,5.50,3.73,-36.75,-36.89,-36.89
-3.95,4.92,3.78,-37.31,-37.31,-37.24
-6.20,4.83,4.20,-34.72,-34.72,-34.37
-8.30,4.72,4.43,-29.61,-29.61,-28.70
-9.92,5.02,4.70,-22.96,-20.44,-19.18
-12.46,5.12,5.51,-12.25,-12.25,-8.05
-13.80,5.73,5.95,-0.35,-0.35,1.26
-13.96,6.82,6.22,13.44,13.44,14.21
-9.50,10.30,5.80,-5.32,-5.32,-5.32
-7.71,9.97,5.47,-23.31,-23.31,-23.31
-6.43,9.21,5.37,-32.20,-32.20,-32.20
-5.35,7.78,5.09,-38.01,-38.01,-38.01
-4.52,6.30,4.55,-33.32,-32.27,-32.27
-3.81,5.24,4.31,-24.85,-19.46,-19.46
-3.11,4.54,4.02,-6.16,-4.27,-4.27
-2.81,4.36,4.08,12.18,12.18,13.72
-2.72,4.58,4.16,22.12,22.12,22.12
-2.98,5.21,4.47,28.14,28.42,28.42
-3.24,5.99,4.71,28.91,28.49,28.49
-3.37,6.67,4.82,24.01,23.03,23.03
-3.49,7.62,4.93,17.01,12.74,12.74
-3.85,8.30,5.10,4.90,0.35,0.35
-4.10,8.50,5.13,-6.16,-8.40,-8.40
-4.53,8.53,5.11,-14.63,-14.98,-14.98
-4.97,8.49,5.09,-16.66,-17.01,-17.15
-5.46,8.27,5.04,-16.31,-16.31,-15.61
-5.58,7.95,4.81,-9.24,-9.24,-9.24
-5.50,7.88,4.66,0.49,1.61,1.61
-5.36,8.03,4.57,7.35,8.19,8.19
-5.01,8.16,4.43,14.21,14.21,14.70
-4.70,8.15,4.27,17.43,17.43,17.64
-4.22,8.17,4.24,18.55,18.55,18.55
-3.73,8.26,4.18,16.73,16.73,16.38
-3.13,8.34,4.21,13.58,12.18,11.62
-2.60,8.35,4.27,7.35,7.35,6.65
-2.13,8.30,4.31,0.70,0.70,0.70
-1.77,8.17,4.24,-2.45,-3.22,-3.22
-1.35,7.94,4.26,-5.53,-5.53,-5.74
-1.02,7.99,4.32,-7.35,-7.35,-7.35
-0.54,8.00,4.35,-8.05,-8.05,-8.05
-0.04,7.83,4.25,-8.19,-8.19,-8.19
0.85,7.62,4.02,-7.84,-7.84,-7.84
1.71,7.48,3.91,-7.35,-7.28,-7.28
2.60,7.04,3.96,-7.14,-7.14,-7.14
3.43,6.67,3.83,-5.74,-5.74,-5.74
4.04,6.30,3.75,-4.06,-3.50,-3.50
4.42,5.75,3.41,-0.77,-0.77,-0.77
4.64,5.09,2.92,4.62,4.62,4.62
4.79,4.86,2.50,8.89,8.89,8.89
3.80,4.23,2.01,2.17,2.17,1.33
3.31,3.72,1.81,-7.56,-7.56,-7.56
2.66,3.08,1.69,-18.90,-18.90,-18.90
1.67,2.56,1.75,-32.34,-32.34,-32.34
0.63,1.64,2.01,-43.47,-47.11,-47.11
-0.95,-0.32,2.24,-59.22,-59.22,-60.69
-2.44,-1.72,2.41,-71.12,-71.12,-71.12
-3.82,-3.78,2.76,-74.69,-75.18,-75.18
-5.56,-6.07,2.65,-74.55,-74.55,-73.78
-7.22,-9.23,2.74,-65.87,-65.87,-65.87
-8.47,-12.86,3.32,-51.45,-51.45,-49.42
-9.42,-14.88,4.02,-30.73,-30.73,-30.73
-9.95,-16.90,4.97,-18.62,-18.62,-18.62
-9.36,-18.39,6.84,-10.15,-9.24,-9.24
-8.13,-19.16,7.18,-3.71,-3.71,-3.71
-6.77,-19.04,6.88,5.88,5.88,5.88
-5.52,-18.61,6.80,12.81,12.81,12.81
-4.82,-19.06,7.55,10.71,9.87,9.87
-4.40,-20.81,8.56,1.89,1.89,-1.68
-3.77,-21.43,8.24,-6.51,-6.51,-7.35
-3.54,-20.57,6.89,-12.04,-12.04,-12.60
-4.02,-19.95,6.15,-15.61,-16.17,-16.17
-4.26,-19.28,4.69,-19.88,-19.88,-20.23
-4.34,-18.58,3.77,-22.54,-23.38,-23.38
-4.25,-17.66,2.49,-27.02,-27.02,-27.23
-3.82,-17.13,1.46,-27.16,-27.16,-26.74
-3.21,-16.60,0.42,-20.93,-20.93,-19.60
-2.76,-16.41,-0.58,-8.33,-8.33,-6.37
-2.69,-15.36,-1.15,6.23,6.23,8.47
-3.02,-13.74,-1.25,25.76,25.76,25.76
-5.47,-8.26,0.32,29.05,29.05,29.05
-6.15,-7.37,0.78,15.82,14.14,14.14
-6.50,-6.16,1.02,6.51,3.78,2.59
-6.38,-5.61,1.47,-4.69,-4.69,-4.69
-6.07,-5.57,1.94,-9.66,-10.01,-10.01
-5.70,-5.32,2.23,-12.60,-12.88,-12.88
-5.29,-5.66,2.77,-14.77,-14.77,-14.77
-5.03,-6.45,2.80,-9.52,-9.52,-9.52
-4.82,-7.10,2.68,-3.29,-1.12,-1.12
-4.63,-7.98,2.66,6.09,6.09,6.09
-4.47,-9.04,2.63,10.99,11.41,11.41
-4.21,-10.12,2.60,12.95,13.93,13.93
-3.92,-10.76,2.46,15.26,15.26,15.40
-3.67,-11.76,2.25,14.63,14.63,14.21
-3.58,-13.19,2.22,9.45,8.75,8.75
-2.43,-18.46,1.38,7.56,7.56,8.05
-2.11,-18.93,1.26,10.99,10.99,11.34
-2.17,-19.24,1.24,12.95,12.95,12.95
-2.09,-20.07,0.94,12.88,12.88,12.88
-1.92,-19.78,0.39,15.61,15.61,16.24
-1.73,-19.34,0.03,21.21,21.84,21.84
-1.55,-18.09,-0.04,27.58,27.58,28.07
-1.36,-16.83,-0.07,31.08,31.08,31.43
-1.11,-15.08,-0.12,33.18,33.18,33.32
-0.85,-14.07,-0.06,33.81,33.81,33.67
-0.45,-12.83,0.08,34.16,34.37,34.58
0.04,-11.46,0.22,36.12,36.12,36.12
0.31,-11.03,0.20,39.06,39.06,39.06
0.58,-10.40,0.18,42.21,42.21,42.21
0.81,-9.19,0.36,41.93,41.30,41.30
1.14,-7.70,0.62,37.80,37.80,37.10
1.34,-6.76,0.75,28.56,28.56,28.56
1.49,-5.79,0.90,20.16,16.94,16.94
1.67,-5.22,0.97,2.17,2.17,2.17
1.72,-4.69,1.06,-10.01,-14.14,-14.14
1.65,-4.84,0.99,-28.21,-28.21,-30.17
1.45,-5.19,0.84,-42.91,-42.91,-44.73
1.13,-5.63,0.72,-60.13,-60.13,-60.13
0.63,-6.28,0.65,-71.89,-71.89,-71.89
0.25,-7.56,0.29,-87.71,-87.71,-87.71
-0.15,-8.60,-0.08,-96.25,-96.25,-97.58
-0.62,-9.53,-0.51,-110.11,-110.11,-110.1
-1.09,-10.54,-0.83,-119.35,-119.35,-122.
-1.54,-12.17,-1.29,-136.15,-136.15,-136.
-2.02,-13.31,-1.63,-150.78,-150.78,-150.
-2.59,-14.51,-1.86,-167.51,-169.12,-169.
-2.89,-15.84,-1.93,-176.40,-179.55,-179.
-2.91,-16.72,-1.97,-182.56,-182.84,-183.
-3.11,-17.03,-2.07,-182.14,-181.72,-181.
-3.36,-16.99,-1.95,-174.72,-174.72,-173.
-3.35,-16.83,-1.58,-166.67,-166.67,-165.
-3.17,-16.54,-1.10,-155.12,-152.11,-152.
-2.90,-15.76,-0.62,-142.38,-141.05,-141.
-2.77,-14.57,0.07,-130.90,-130.90,-129.7
-2.35,-13.49,0.62,-122.78,-122.78,-121.8
-1.95,-12.58,0.99,-116.90,-114.80,-113.8
-1.85,-11.65,1.46,-107.87,-106.68,-106.6
-1.83,-10.88,2.04,-97.44,-97.44,-96.25
-1.91,-10.57,2.23,-88.76,-88.76,-87.36
-1.90,-10.33,2.42,-75.74,-75.74,-72.03
-2.05,-10.22,2.46,-59.15,-59.15,-59.15
-2.26,-10.27,2.44,-34.09,-34.09,-34.09
-2.40,-10.13,2.41,-12.74,-12.74,-12.74
-2.62,-9.85,2.39,1.96,4.20,4.20
-2.85,-9.84,2.22,18.55,20.37,20.37
-3.06,-10.07,1.76,35.14,35.14,36.75
-3.16,-10.21,1.36,46.83,48.02,48.02
-3.24,-10.41,0.83,59.01,59.01,60.06
-3.28,-10.81,0.46,64.54,66.43,67.34
-3.29,-11.49,-0.09,71.82,71.82,74.62
-3.32,-12.46,-0.96,81.48,81.48,81.48
-3.25,-13.14,-1.65,90.09,91.14,91.14
-3.20,-13.74,-2.59,100.87,100.87,101.85
-3.12,-14.27,-3.26,107.31,108.29,108.29
-2.93,-14.46,-3.91,113.12,113.12,114.10
-2.55,-14.02,-4.79,121.24,121.24,121.24
-2.03,-13.81,-5.35,125.51,126.63,126.63
-1.45,-13.31,-5.86,129.08,129.36,129.36
-0.92,-12.01,-5.78,128.17,128.17,127.05
-0.55,-10.38,-5.43,118.86,118.86,118.86
-0.27,-9.16,-5.04,105.42,103.53,103.53
-0.16,-8.25,-4.53,91.49,91.49,89.39
-0.01,-7.96,-4.23,68.32,68.32,68.32
-0.01,-8.19,-3.96,52.22,52.22,52.22
-0.13,-8.15,-3.43,33.53,33.53,33.53
-0.44,-8.14,-2.89,22.12,22.12,22.12
-0.77,-8.15,-2.46,15.75,14.07,14.07
-1.11,-7.94,-1.99,9.45,9.45,8.19
-1.37,-8.07,-1.54,4.55,3.85,2.31
-1.67,-8.57,-1.06,-3.64,-4.55,-4.55
-1.87,-8.97,-0.61,-10.15,-10.71,-10.71
-2.16,-9.58,-0.20,-16.31,-16.31,-16.80
-2.37,-9.87,0.14,-19.39,-20.30,-20.30
-2.49,-9.98,0.52,-22.47,-22.47,-23.24
-2.50,-10.04,0.88,-25.76,-25.76,-25.76
-2.36,-10.27,1.20,-29.96,-29.96,-29.96
-2.22,-10.41,1.38,-31.36,-31.36,-31.36
-2.14,-10.59,1.51,-30.38,-30.17,-30.17
-2.12,-10.73,1.65,-28.49,-28.49,-28.28
-2.02,-10.47,1.65,-28.70,-28.70,-28.91
-1.86,-10.11,1.76,-31.15,-32.06,-32.06
-1.74,-9.78,1.79,-36.12,-36.12,-36.12
-1.56,-9.42,1.82,-42.35,-43.05,-43.05
-1.48,-9.09,1.93,-47.11,-47.11,-47.11
-1.37,-8.87,1.88,-48.44,-48.44,-48.44
-1.25,-8.65,1.82,-47.81,-47.81,-47.39
-1.05,-8.34,1.64,-45.43,-44.87,-44.87
-0.87,-7.71,1.55,-39.55,-39.20,-39.20
-0.65,-7.20,1.49,-36.89,-36.75,-36.75
-0.43,-6.68,1.45,-36.89,-37.38,-37.38
-0.34,-6.50,1.16,-38.71,-39.06,-40.04
-0.48,-6.74,1.00,-43.12,-43.82,-43.82
-0.67,-8.08,0.78,-48.65,-49.77,-49.77
-1.20,-9.79,0.31,-48.93,-48.51,-48.51
-1.63,-11.08,-0.11,-40.60,-39.20,-39.20
-1.70,-12.56,-0.40,-26.88,-26.88,-25.27
-1.64,-13.22,-0.54,-16.03,-16.03,-16.03
-1.30,-13.54,-0.37,-6.79,-6.30,-6.30
-0.97,-12.90,-0.06,-4.97,-5.11,-5.11
-0.42,-12.13,0.39,-6.09,-6.79,-6.79
0.27,-11.72,0.48,-7.35,-7.35,-7.35
0.63,-11.57,0.13,-3.43,-3.43,-3.43
0.73,-11.25,-0.19,1.82,1.82,2.87
0.54,-10.83,-0.52,11.48,11.48,14.14
0.06,-10.65,-0.90,24.99,24.99,24.99
-0.36,-10.34,-0.91,34.16,34.16,34.16
-0.50,-10.11,-0.94,40.32,41.16,41.16
-0.47,-9.50,-0.87,43.47,43.33,43.33
-0.44,-8.99,-0.57,38.92,37.94,37.94
-0.33,-8.44,-0.35,28.84,27.37,27.37
-0.20,-8.05,-0.18,14.91,13.09,13.09
-0.07,-8.09,-0.14,1.47,-0.28,-0.28
-0.08,-8.36,-0.12,-15.75,-15.75,-17.22
0.03,-8.60,-0.11,-23.66,-25.76,-26.67
0.15,-9.00,-0.18,-30.80,-31.92,-32.34
0.33,-9.31,-0.26,-33.60,-33.60,-33.60
0.53,-9.67,-0.34,-31.85,-31.85,-31.85
0.74,-10.05,-0.37,-25.69,-25.69,-25.69
0.93,-10.25,-0.38,-20.02,-20.02,-20.02
0.95,-10.46,-0.38,-12.25,-11.20,-11.20
0.98,-10.55,-0.36,-6.02,-6.02,-5.25
0.99,-10.64,-0.36,-0.84,-0.35,-0.35
1.07,-10.30,-0.25,3.01,3.22,3.22
1.21,-9.97,-0.14,2.73,2.73,2.59
1.23,-9.44,-0.01,0.28,-0.21,-0.21
1.21,-9.19,0.10,-5.88,-5.88,-6.58
1.09,-9.08,0.15,-10.50,-12.04,-12.04
1.04,-9.25,0.14,-16.31,-17.50,-17.50
0.91,-9.63,0.09,-21.28,-21.56,-21.56
0.83,-9.85,0.06,-22.96,-22.82,-22.82
0.86,-9.94,0.06,-21.98,-21.70,-21.70
0.91,-9.91,0.05,-18.90,-18.90,-18.62
0.97,-9.98,0.04,-16.59,-16.59,-16.59
0.97,-10.00,0.08,-13.23,-13.23,-13.23
0.97,-10.08,0.04,-10.29,-10.29,-10.29
0.99,-10.20,0.02,-7.77,-7.77,-7.28
0.94,-10.39,-0.04,-3.57,-3.57,-3.57
0.87,-10.37,-0.08,-1.26,-0.84,-0.84
0.88,-10.38,-0.18,2.38,2.38,2.73
0.88,-10.55,-0.25,4.62,4.62,4.97
0.92,-10.33,-0.19,7.49,7.49,7.49
1.02,-9.59,-0.06,9.52,9.87,9.87
0.98,-9.30,-0.14,12.25,12.25,12.25
0.87,-9.63,-0.30,12.04,12.04,12.04
0.84,-9.82,-0.34,11.55,11.55,11.55
0.77,-10.14,-0.36,11.55,11.55,11.55