aX,aY,aZ,gX,gY,gZ
-8.28,-5.13,1.31,-4.27,-4.27,-4.27
-8.33,-4.99,1.31,-4.69,-4.69,-4.83
-8.34,-4.96,1.25,-5.60,-5.60,-5.60
-8.33,-5.03,1.20,-6.02,-6.02,-6.02
-8.34,-5.07,1.16,-6.23,-6.23,-6.23
-8.39,-5.05,1.12,-6.16,-5.95,-5.95
-8.42,-5.14,1.10,-5.53,-5.53,-5.32
-8.41,-5.24,1.13,-4.20,-4.06,-4.06
-8.36,-5.17,1.18,-3.29,-3.08,-3.08
-8.35,-5.14,1.15,-3.01,-3.08,-3.08
-8.31,-5.08,1.20,-3.08,-3.08,-3.08
-8.26,-5.07,1.28,-3.57,-3.64,-3.64
-8.29,-5.03,1.30,-4.55,-4.62,-4.62
-8.29,-5.07,1.29,-5.11,-5.11,-5.11
-8.24,-5.16,1.28,-4.97,-4.76,-4.76
-8.22,-5.24,1.29,-4.41,-4.41,-4.34
-8.27,-5.20,1.31,-3.99,-3.99,-3.99
-8.27,-5.27,1.30,-3.43,-3.36,-3.36
-8.28,-5.25,1.26,-2.80,-2.73,-2.73
-8.33,-5.29,1.27,-2.38,-2.38,-2.38
-8.37,-5.25,1.28,-2.17,-2.17,-2.17
-8.39,-5.13,1.28,-2.52,-2.52,-2.52
-8.43,-5.04,1.24,-3.01,-3.01,-3.29
-8.48,-4.91,1.28,-4.41,-4.55,-4.55
-8.52,-4.89,1.31,-6.23,-6.37,-6.37
-8.50,-5.08,1.34,-7.21,-7.21,-7.14
-8.54,-5.30,1.28,-6.09,-6.09,-5.67
-8.54,-5.44,1.23,-4.27,-3.92,-3.92
-8.51,-5.31,1.26,-1.75,-1.75,-1.61
-8.46,-5.16,1.29,-1.33,-1.33,-1.33
-8.45,-5.15,1.30,-1.61,-1.61,-1.61
-8.44,-5.25,1.27,-1.40,-1.19,-1.19
-8.41,-5.19,1.24,-0.70,-0.42,-0.42
-8.42,-5.06,1.33,-0.42,-0.56,-0.56
-8.45,-4.89,1.41,-2.03,-2.03,-2.10
-8.41,-4.98,1.41,-2.52,-2.52,-2.31
-8.37,-5.13,1.39,-0.91,-0.91,-0.91
-8.36,-5.06,1.41,1.89,2.17,2.17
-8.42,-4.93,1.42,2.59,2.66,2.66
-8.40,-4.84,1.40,2.24,1.96,1.96
-8.37,-4.79,1.31,1.75,1.68,1.54
-8.40,-4.85,1.24,1.40,1.40,1.47
-8.49,-4.90,1.27,1.68,1.68,1.68
-8.59,-4.92,1.28,1.89,1.89,1.89
-8.60,-4.92,1.27,1.96,1.96,1.96
-8.62,-4.84,1.26,2.24,2.24,2.24
-8.61,-4.79,1.22,2.66,2.66,2.66
-8.61,-4.81,1.14,2.94,3.15,3.15
-8.55,-4.77,1.13,3.64,3.78,3.92
-8.58,-4.53,1.18,3.43,3.43,3.36
-8.57,-4.42,1.24,1.68,1.68,1.68
-8.61,-4.43,1.25,0.84,0.49,0.49
-8.57,-4.51,1.27,0.00,0.00,-0.14
-8.60,-4.78,1.24,-0.07,0.21,0.21
-8.61,-4.91,1.21,1.40,1.40,1.61
-8.52,-4.75,1.14,2.31,2.31,2.24
-8.52,-4.57,1.19,1.12,0.91,0.91
-8.62,-4.62,1.23,-1.33,-1.33,-1.40
-8.68,-5.00,1.20,-1.54,-1.54,-1.54
-8.69,-5.07,1.23,0.07,0.07,0.35
-8.69,-4.97,1.26,2.17,2.17,2.17
-8.67,-4.80,1.29,3.22,3.29,3.29
-8.63,-4.62,1.34,3.36,3.29,3.29
-8.61,-4.46,1.38,3.01,3.01,2.94
-8.53,-4.42,1.36,2.87,2.87,2.87
-8.46,-4.37,1.30,2.73,2.73,2.66
-8.41,-4.44,1.29,2.31,2.31,2.31
-8.43,-4.66,1.28,2.94,2.94,2.94
-8.45,-4.86,1.25,5.04,5.18,5.18
-8.49,-4.80,1.25,7.35,7.35,7.35
-8.44,-4.69,1.26,7.42,7.42,7.42
-8.45,-4.76,1.18,7.28,7.28,7.28
-8.49,-4.79,1.14,7.42,7.42,7.42
-8.53,-4.63,1.12,6.23,6.23,6.23
-8.60,-4.58,1.17,3.01,3.01,3.01
-8.65,-4.76,1.10,0.63,0.63,0.63
-8.71,-4.85,1.12,0.56,0.56,0.77
-8.79,-4.83,1.24,1.47,1.47,1.47
-8.87,-4.83,1.28,3.36,3.36,3.36
-8.91,-4.83,1.28,5.53,5.53,5.53
-9.01,-4.71,1.35,6.86,6.86,6.86
-9.11,-4.54,1.38,6.37,6.37,6.37
-9.27,-4.41,1.45,4.55,4.55,4.55
-9.44,-4.47,1.42,1.96,1.96,1.96
-9.51,-4.63,1.38,1.75,1.96,1.96
-9.75,-4.58,1.41,2.45,2.45,2.66
-10.04,-4.55,1.53,3.36,3.36,3.36
-10.24,-4.75,1.54,7.07,7.07,7.07
-10.44,-4.39,1.69,16.52,16.52,16.52
-10.44,-4.04,1.66,18.13,18.13,18.13
-10.36,-3.74,1.70,18.55,18.55,18.55
-10.42,-3.82,1.73,18.76,18.76,18.97
-10.51,-3.95,1.65,22.05,22.05,22.05
-10.49,-3.67,1.79,23.10,23.10,23.10
-10.52,-3.35,1.92,21.14,20.65,20.65
-10.51,-3.24,1.96,20.30,20.51,20.51
-10.60,-3.18,2.06,21.63,21.63,22.26
-10.74,-3.04,2.10,24.43,24.78,24.78
-10.61,-2.46,2.12,28.07,28.42,28.42
-10.54,-1.97,2.13,28.98,28.98,28.98
-10.30,-1.34,2.13,26.60,26.18,26.18
-10.14,-1.19,2.01,23.24,22.96,22.96
-10.03,-1.38,1.96,21.42,21.21,21.21
-9.94,-1.49,1.99,21.70,21.70,21.70
-9.86,-1.10,1.96,21.35,21.35,21.35
-9.65,-0.75,1.91,19.81,19.81,19.81
-9.60,-0.51,1.92,18.20,18.27,18.27
-9.63,-0.40,1.93,18.62,18.83,18.90
-9.61,-0.04,2.02,18.83,18.83,18.83
-9.65,0.22,2.04,18.76,18.76,18.76
-9.65,0.93,2.07,17.92,17.43,17.43
-9.44,1.59,2.04,14.21,13.86,13.86
-9.38,1.86,2.05,12.60,12.53,12.53
-9.31,2.02,2.10,12.81,12.95,12.95
-9.23,2.44,2.12,14.21,14.21,14.35
-9.15,3.07,2.15,13.44,12.81,12.53
-9.00,3.36,2.12,11.34,11.34,10.92
-8.87,3.59,2.09,10.50,10.50,10.64
-8.74,3.60,2.19,11.34,11.34,11.69
-8.48,3.59,2.20,14.42,14.42,14.42
-8.32,4.20,2.31,15.19,15.19,15.19
-7.99,4.65,2.21,13.09,13.09,13.09
-7.37,5.24,2.13,10.08,8.96,8.96
-7.02,5.19,2.11,6.37,6.37,6.37
-6.76,5.23,2.13,7.56,7.56,7.56
-6.33,5.79,2.20,6.23,6.02,6.02
-6.03,6.08,2.29,3.64,3.64,3.29
-5.72,6.20,2.30,1.33,1.33,1.12
-5.50,6.31,2.38,0.42,0.42,0.42
-5.26,6.36,2.44,1.82,2.31,2.52
-5.15,6.60,2.57,3.57,3.57,3.99
-5.03,7.05,2.68,4.13,4.13,4.13
-4.69,7.32,2.69,3.08,3.08,3.08
-4.25,7.62,2.73,1.96,1.96,1.96
-3.68,7.97,2.73,-1.05,-1.05,-1.26
-3.43,7.76,2.68,-2.31,-2.31,-2.03
-3.15,7.52,2.64,2.10,2.10,2.10
-2.64,7.77,2.64,4.55,4.48,4.48
-2.00,8.33,2.67,2.31,2.31,2.31
-1.83,8.41,2.80,-0.84,-0.84,-0.84
-1.83,8.02,2.75,-0.35,-0.35,0.07
-1.67,9.04,2.89,-1.89,-1.89,-1.89
-1.56,9.00,2.77,-6.58,-6.72,-6.72
-1.45,8.64,2.72,-6.86,-6.72,-6.72
-1.19,8.66,2.77,-5.46,-5.46,-5.46
-0.24,8.97,3.30,-8.40,-8.47,-8.47
0.19,8.79,3.38,-7.63,-6.79,-6.79
0.70,8.71,3.29,-4.62,-4.62,-4.62
1.14,8.76,3.19,-2.52,-2.31,-2.31
1.64,8.73,3.20,-1.19,-0.35,-0.35
2.07,8.51,3.06,1.54,1.96,2.73
2.37,8.43,3.03,5.04,5.39,5.39
2.69,8.35,2.81,9.10,9.59,9.59
2.78,8.81,2.64,9.31,9.31,9.31
2.86,9.03,2.53,3.71,3.71,3.71
2.82,9.02,2.49,0.56,-0.28,-0.28
2.33,8.67,2.44,-1.19,-1.19,-1.05
1.72,8.67,2.53,-0.70,-0.56,-0.56
1.64,8.93,2.72,-1.68,-1.68,-1.75
1.74,9.08,2.81,-3.22,-3.22,-3.22
1.85,9.18,2.80,-5.53,-5.53,-5.53
2.11,9.13,2.82,-6.65,-6.65,-6.65
2.46,9.02,2.78,-7.56,-7.63,-7.63
2.64,8.82,2.90,-7.70,-7.70,-7.70
2.71,8.76,2.99,-7.07,-7.07,-6.93
2.78,8.76,3.06,-7.35,-7.35,-7.35
2.78,8.60,3.10,-6.72,-6.72,-6.72
2.64,8.59,3.17,-5.04,-5.04,-4.76
2.41,8.69,3.23,-3.85,-3.85,-3.78
2.12,8.60,3.26,-2.31,-2.31,-2.31
1.71,8.68,3.27,-0.63,-0.63,-0.63
1.33,8.89,3.26,-0.14,-0.14,-0.14
1.24,9.03,3.20,-0.70,-0.70,-0.70
1.17,9.16,3.22,-1.33,-1.40,-1.40
1.05,9.16,3.23,-2.10,-2.10,-2.10
0.99,9.14,3.23,-3.29,-3.29,-3.29
1.03,9.14,3.20,-4.62,-4.62,-4.62
1.10,9.15,3.18,-6.72,-6.72,-6.72
1.13,8.99,3.20,-7.91,-7.91,-7.91
1.22,8.82,3.14,-6.93,-6.44,-6.44
1.24,8.82,3.20,-5.67,-5.46,-5.46
1.12,8.82,3.31,-5.46,-5.39,-5.25
0.95,8.78,3.40,-5.18,-5.18,-5.11
0.82,8.79,3.43,-5.39,-5.46,-5.46
0.87,8.74,3.30,-4.97,-4.76,-4.76
0.78,8.79,3.31,-3.85,-3.78,-3.78
0.40,8.91,3.42,-3.85,-3.99,-3.99
-0.07,8.82,3.61,-4.27,-4.20,-4.20
-0.59,8.66,3.60,-2.87,-2.87,-2.45
-0.73,8.70,3.38,-0.28,-0.28,-0.28
-0.58,9.17,3.34,-1.12,-1.61,-1.61
-0.59,9.36,3.32,-4.83,-4.83,-4.83
-0.99,9.03,3.39,-6.58,-6.58,-6.58
-1.31,8.63,3.36,-4.83,-4.83,-4.83
-0.97,8.82,3.42,-8.96,-8.96,-8.82
-1.22,8.37,3.40,-6.86,-6.51,-6.51
-1.21,8.53,3.46,-4.62,-4.62,-4.69
-1.24,8.62,3.52,-5.46,-5.46,-5.46
-1.38,8.37,3.43,-4.34,-4.34,-4.34
-1.79,8.19,3.45,-2.24,-2.24,-2.24
-2.01,8.44,3.42,-1.47,-1.47,-1.47
-2.09,8.61,3.40,-3.78,-3.78,-3.78
-2.49,8.51,3.33,-5.74,-5.74,-5.74
-3.04,8.26,3.36,-6.09,-6.23,-6.23
-3.41,8.18,3.34,-6.16,-6.16,-6.16
-3.65,8.35,3.42,-7.21,-8.26,-8.26
-3.82,8.28,3.49,-9.94,-10.15,-10.15
-4.02,8.02,3.55,-10.78,-10.85,-10.85
-4.17,7.98,3.60,-10.57,-10.57,-10.57
-4.10,8.22,3.60,-11.90,-11.90,-12.18
-3.82,8.31,3.54,-14.28,-14.28,-14.70
-3.79,8.02,3.57,-16.52,-16.52,-16.52
-4.10,7.53,3.65,-16.17,-16.17,-16.17
-4.43,7.29,3.89,-14.35,-14.07,-14.07
-4.68,7.17,3.93,-12.67,-11.83,-11.83
-4.77,7.27,3.98,-10.92,-10.64,-10.64
-4.77,7.34,3.90,-9.73,-9.73,-9.66
-4.78,7.33,3.93,-9.17,-9.17,-9.03
-5.00,7.18,3.99,-8.61,-8.61,-8.26
-5.32,7.15,4.02,-7.77,-7.77,-7.70
-5.70,7.13,4.07,-8.47,-8.47,-8.47
-6.17,6.83,4.00,-7.28,-7.28,-7.28
-6.23,6.93,4.00,-5.18,-5.18,-5.18
-6.31,7.09,4.05,-5.67,-6.16,-6.16
-6.31,6.99,4.04,-6.72,-6.72,-6.72
-6.27,6.94,3.97,-7.84,-7.84,-7.84
-6.26,6.73,3.97,-8.40,-8.40,-8.40
-6.16,6.80,4.02,-10.15,-10.43,-10.43
-6.12,6.63,3.99,-11.83,-12.39,-12.39
-6.25,6.18,4.03,-11.97,-11.97,-11.97
-6.34,5.96,4.09,-9.31,-9.31,-9.31
-6.36,5.72,4.11,-7.07,-6.30,-6.30
-6.40,5.75,4.19,-3.92,-3.78,-3.78
-6.46,6.10,4.16,-5.04,-5.18,-5.81
-6.58,5.99,4.11,-6.79,-7.00,-7.07
-6.72,5.69,4.04,-6.37,-6.37,-6.16
-6.83,5.58,4.02,-5.04,-5.04,-5.04
-6.84,5.53,3.99,-4.34,-4.34,-4.34
-7.05,5.37,4.03,-4.13,-4.13,-4.06
-7.33,5.20,4.03,-3.36,-3.36,-3.22
-7.29,5.34,3.98,-3.43,-3.43,-3.43
-7.02,5.58,3.89,-6.44,-6.44,-6.44
-6.99,5.45,3.82,-9.10,-9.10,-9.10
-7.26,5.17,3.83,-10.78,-10.78,-10.99
-7.31,4.90,3.79,-12.04,-12.04,-12.04
-7.56,4.51,3.81,-11.55,-11.55,-11.34
-7.59,4.43,3.74,-9.94,-9.94,-9.52
-7.62,4.39,3.76,-9.03,-9.03,-9.03
-7.57,4.31,3.79,-8.05,-7.98,-7.98
-7.52,4.49,3.80,-8.68,-9.66,-9.66
-7.42,4.56,3.77,-11.69,-12.25,-12.95
-7.49,4.16,3.70,-14.84,-14.84,-14.84
-7.69,3.77,3.72,-14.56,-14.56,-14.56
-7.89,3.56,3.73,-13.93,-13.93,-13.93
-7.92,3.54,3.72,-14.56,-14.91,-14.91
-7.90,3.46,3.73,-15.40,-15.68,-15.68
-7.87,3.31,3.74,-16.31,-16.31,-16.31
-7.98,3.14,3.78,-16.94,-16.94,-17.01
-8.30,2.68,3.82,-19.53,-19.53,-19.53
-8.49,2.37,3.85,-19.39,-19.39,-19.39
-8.60,2.20,3.85,-18.62,-18.62,-18.62
-8.78,1.99,3.89,-17.92,-17.64,-17.64
-8.94,1.87,3.87,-16.10,-16.10,-16.10
-9.08,1.74,3.87,-15.89,-15.89,-15.82
-9.29,1.55,3.87,-15.68,-15.68,-15.47
-9.30,1.46,3.86,-15.47,-15.47,-15.54
-9.26,1.35,3.84,-16.17,-16.17,-16.17
-9.14,1.29,3.80,-16.59,-16.80,-16.80
-9.21,0.97,3.79,-17.08,-16.94,-16.94
-9.23,0.69,3.77,-15.40,-15.40,-15.40
-9.11,0.64,3.72,-14.84,-14.84,-14.84
-9.37,0.20,3.73,-16.59,-16.59,-16.59
-9.14,-0.44,3.54,-18.06,-17.92,-17.92
-9.16,-0.69,3.50,-16.73,-16.45,-16.45
-9.21,-0.92,3.52,-15.47,-15.26,-15.26
-9.12,-0.95,3.45,-15.26,-15.12,-15.47
-9.03,-1.03,3.39,-15.75,-16.03,-16.03
-9.14,-1.26,3.40,-16.80,-16.80,-16.80
-9.34,-1.36,3.41,-18.62,-18.62,-18.62
-9.39,-1.53,3.45,-20.30,-20.30,-20.30
-9.49,-1.84,3.38,-20.93,-20.79,-20.79
-9.39,-2.09,3.31,-19.95,-19.74,-19.74
-9.20,-2.17,3.23,-18.34,-18.13,-18.13
-8.94,-1.80,3.15,-19.18,-19.53,-19.53
-8.92,-2.07,3.19,-21.77,-21.77,-22.05
-9.11,-2.76,3.10,-20.37,-20.37,-20.37
-9.13,-3.15,3.06,-17.29,-16.52,-16.52
-8.95,-3.05,3.06,-15.19,-15.19,-15.26
-8.90,-3.06,3.06,-17.64,-17.64,-17.64
-8.97,-3.32,2.98,-19.95,-19.95,-19.95
-8.95,-3.46,2.95,-21.84,-21.84,-21.84
-8.89,-3.64,2.91,-23.87,-23.87,-23.87
-8.96,-4.02,2.82,-24.08,-24.08,-24.08
-9.06,-4.34,2.87,-21.49,-21.49,-21.49
-9.28,-4.50,2.93,-17.78,-17.78,-17.78
-9.26,-4.52,2.97,-15.40,-15.05,-15.05
-9.08,-4.26,3.06,-14.91,-14.91,-14.91
-9.15,-4.29,3.09,-17.01,-17.15,-17.15
-9.15,-4.70,3.14,-17.22,-17.22,-17.22
-9.19,-4.96,3.18,-15.61,-15.26,-15.26
-9.07,-4.91,3.15,-12.88,-12.88,-12.74
-8.86,-4.69,3.15,-12.46,-12.46,-12.46
-8.72,-4.77,3.06,-12.11,-12.11,-12.04
-8.51,-4.94,2.95,-10.22,-10.22,-10.22
-8.17,-5.01,2.86,-8.68,-8.68,-8.68
-7.97,-5.21,2.76,-6.51,-6.30,-6.30
-8.02,-5.55,2.73,-4.48,-4.13,-4.13
-8.09,-5.80,2.71,-2.31,-2.31,-2.10
-8.29,-5.95,2.81,-0.98,-0.98,-0.91
-8.39,-5.90,2.89,-1.19,-1.26,-1.47
-8.52,-5.80,2.91,-1.82,-1.82,-2.10
-8.79,-5.51,2.99,-0.35,-0.35,-0.35
-8.76,-5.48,2.96,1.61,2.24,2.24
-8.52,-5.37,2.90,3.92,4.13,4.13
-8.23,-5.29,2.81,4.69,4.62,4.62
-7.75,-5.75,2.65,6.44,6.65,6.65
-7.73,-5.74,2.66,8.33,8.61,8.61
-7.75,-5.66,2.74,9.52,9.52,9.87
-7.93,-5.68,2.71,10.57,10.57,10.92
-8.03,-5.50,2.75,11.90,11.90,11.90
-8.14,-5.23,2.77,11.69,11.62,11.62
-8.27,-5.13,2.82,11.20,10.99,10.99
-8.42,-5.07,2.87,10.15,10.15,9.80
-8.65,-5.14,2.95,9.17,9.17,9.17
-8.72,-5.22,2.95,9.45,9.45,9.59
-8.79,-5.22,3.00,10.36,10.36,10.57
-8.93,-5.25,3.12,12.25,12.25,12.25
-8.92,-5.13,3.12,14.07,14.07,14.07
-8.78,-4.22,3.10,16.73,16.73,16.73
-8.80,-4.11,3.05,17.01,17.22,17.22
-8.87,-4.04,2.96,17.64,17.64,17.71
-9.03,-4.01,2.95,18.48,18.62,18.62
-9.05,-4.01,2.84,20.51,20.51,20.72
-9.16,-4.01,2.84,21.63,21.91,21.98
-9.39,-3.70,2.88,22.26,22.26,22.26
-9.47,-3.39,2.92,19.88,19.46,19.46
-9.62,-3.22,3.00,17.22,16.31,16.31
-9.83,-3.28,3.15,14.21,14.07,14.07
-10.05,-3.35,3.22,14.14,14.35,14.70
-10.33,-3.45,3.30,17.50,17.50,17.50
-10.33,-3.20,3.36,22.68,23.24,23.24
-10.39,-2.60,3.49,25.06,25.06,25.06
-10.43,-1.98,3.64,25.20,25.20,25.20
-10.48,-1.62,3.72,24.57,24.50,24.50
-10.60,-1.46,3.85,24.57,24.57,24.78
-10.86,-1.69,3.89,27.23,27.23,27.86
-11.01,-1.61,3.89,32.62,32.62,33.18
-10.99,-0.96,3.91,35.98,35.98,36.19
-11.15,-0.01,3.84,36.40,36.40,36.40
-11.14,0.26,3.79,36.40,36.33,36.33
-11.16,0.50,3.77,35.84,35.84,35.84
-10.62,0.89,3.61,37.24,37.31,37.31
-10.26,1.22,3.58,39.48,39.62,39.62
-8.67,1.49,3.56,41.30,41.30,41.58
-9.07,2.20,3.51,41.23,41.23,40.95
-8.25,2.89,3.45,38.85,38.85,38.50
-7.48,3.12,3.37,36.05,36.05,36.05
-6.79,3.05,3.22,36.47,36.82,36.82
-6.50,3.19,3.19,37.73,38.15,38.15
-5.94,3.69,3.20,38.50,38.50,38.64
-4.99,4.36,3.06,38.78,38.78,38.78
-4.22,4.84,3.05,36.82,36.82,36.40
-3.76,5.32,3.13,34.30,33.53,33.25
-3.63,5.41,3.20,31.92,31.92,31.78
-3.96,5.56,3.35,30.94,30.94,30.94
-4.08,5.88,3.32,30.80,30.80,30.80
-3.93,6.48,3.34,29.33,28.56,28.56
-3.34,7.14,3.19,26.04,26.04,24.99
-2.69,7.63,2.93,21.00,20.44,20.44
-2.58,7.81,2.95,16.31,15.82,15.82
-2.48,7.78,2.85,12.81,12.81,12.81
-1.94,7.87,2.76,12.60,12.60,12.46
-1.35,8.18,2.75,9.59,9.59,9.59
-0.79,8.55,2.82,5.46,4.06,4.06
-0.31,8.44,2.93,1.47,0.98,0.98
-0.11,8.17,3.16,0.84,0.84,1.12
0.21,8.14,3.26,3.64,3.64,3.64
0.56,8.21,3.26,5.32,5.32,5.32
0.55,8.50,3.61,4.27,4.13,4.13
0.59,8.57,3.73,3.43,3.43,3.50
0.70,8.33,3.73,4.13,4.69,4.90
1.02,8.30,3.65,6.09,6.09,6.09
1.36,8.47,3.70,4.41,4.20,4.20
1.85,8.37,3.57,2.59,2.03,2.03
2.42,8.07,3.35,1.33,1.33,1.33
3.59,7.72,2.80,3.57,3.64,3.64
4.49,7.71,2.40,3.92,3.78,3.78
5.11,7.84,2.39,2.31,1.40,1.05
5.43,7.87,2.44,-1.75,-1.75,-1.96
5.49,7.57,2.45,-2.80,-2.80,-2.87
5.30,7.53,2.54,-2.52,-2.52,-2.52
5.04,7.80,2.67,-2.52,-2.52,-3.01
4.75,8.19,2.88,-3.92,-3.92,-4.20
4.29,8.34,3.15,-6.79,-6.79,-6.86
3.77,8.31,3.36,-6.79,-6.79,-6.58
3.05,8.22,3.47,-4.41,-4.41,-4.06
2.54,8.26,3.49,-2.17,-1.40,-1.12
2.34,8.60,3.54,-0.14,-0.14,0.00
2.45,8.90,3.44,-0.49,-0.49,-0.49
2.43,8.94,3.42,-1.26,-1.26,-1.26
2.17,8.90,3.50,-1.75,-1.82,-1.82
2.04,8.93,3.47,-2.24,-2.24,-2.66
2.12,9.05,3.42,-4.13,-4.13,-4.13
2.25,9.08,3.47,-6.58,-6.58,-6.58
2.24,8.95,3.54,-7.84,-7.84,-7.84
2.17,8.60,3.55,-6.72,-6.51,-6.51
2.07,8.51,3.53,-4.48,-4.48,-4.27
2.19,8.73,3.58,-3.85,-3.85,-4.06
2.27,8.80,3.68,-5.81,-5.81,-6.09
2.27,8.63,3.71,-6.79,-6.79,-6.72
2.11,8.50,3.77,-5.67,-5.67,-5.67
1.96,8.44,3.68,-2.87,-2.38,-2.38
2.01,8.55,3.57,-0.42,-0.42,-0.42
2.21,8.74,3.54,-0.14,-0.28,-0.28
2.19,8.86,3.49,-1.40,-1.40,-1.54
1.89,8.78,3.53,-2.87,-2.87,-3.15
1.51,8.60,3.54,-3.01,-3.01,-3.01
1.40,8.48,3.44,-2.10,-2.10,-2.10
1.52,8.75,3.44,-3.01,-3.01,-3.01
1.54,9.09,3.52,-6.23,-6.23,-6.23
1.30,8.83,3.44,-8.89,-8.89,-8.89
1.10,8.46,3.36,-8.68,-8.54,-8.54
1.05,8.45,3.42,-8.61,-9.03,-9.03
0.91,8.63,3.56,-10.85,-11.34,-11.34
0.58,8.65,3.77,-13.86,-13.86,-14.07
0.07,8.49,3.89,-14.49,-14.49,-14.35
-0.10,8.37,3.86,-12.81,-12.81,-12.46
-0.26,8.54,4.00,-10.78,-10.78,-10.78
-0.51,8.62,4.06,-9.59,-9.59,-9.59
-0.72,8.55,4.07,-7.91,-7.91,-7.91
-1.17,8.93,4.12,-9.66,-9.66,-9.94
-1.41,8.66,4.04,-11.20,-11.20,-11.13
-1.64,8.40,3.95,-10.71,-10.71,-10.50
-1.72,8.46,4.01,-10.22,-10.22,-10.22
-1.81,8.48,4.02,-11.20,-11.20,-11.20
-2.14,8.37,4.12,-12.32,-12.32,-12.32
-2.47,8.06,4.15,-12.32,-12.11,-12.11
-2.58,8.02,4.14,-11.90,-11.90,-11.97
-2.52,8.21,4.21,-14.14,-14.14,-14.14
-2.71,8.02,4.32,-16.45,-16.45,-16.45
-3.01,7.70,4.39,-15.75,-15.54,-15.54
-3.00,7.69,4.37,-14.70,-14.49,-14.49
-3.11,7.83,4.46,-15.19,-15.19,-15.19
-3.30,7.72,4.56,-16.24,-16.24,-16.24
-3.50,7.61,4.58,-16.31,-16.31,-16.31
-3.73,7.59,4.55,-17.29,-17.29,-17.29
-3.83,7.57,4.51,-19.11,-19.11,-19.11
-3.98,7.46,4.55,-19.95,-19.81,-19.81
-4.11,7.30,4.59,-20.58,-20.58,-20.65
-4.31,7.15,4.64,-21.98,-21.98,-22.26
-4.45,6.95,4.77,-24.22,-24.22,-24.50
-4.88,6.57,4.74,-24.15,-24.15,-24.15
-5.16,6.27,4.68,-20.72,-19.39,-19.39
-5.29,6.15,4.70,-15.12,-13.79,-13.79
-5.32,6.29,4.69,-10.43,-9.59,-9.59
-5.23,6.70,4.71,-9.10,-9.52,-9.52
-5.32,6.80,4.86,-11.83,-12.74,-12.74
-5.53,6.50,4.92,-14.42,-14.70,-14.70
-5.81,6.18,4.91,-15.19,-15.26,-15.26
-5.68,6.17,4.78,-16.03,-16.03,-16.03
-5.36,6.33,4.73,-18.06,-18.97,-18.97
-5.37,6.03,4.82,-22.05,-22.05,-22.82
-5.61,5.51,4.86,-24.50,-24.50,-24.99
-6.08,4.97,4.92,-25.69,-25.69,-25.76
-6.56,4.46,4.95,-25.41,-25.27,-25.27
-6.63,4.22,4.89,-22.89,-22.89,-21.28
-6.87,3.98,4.91,-18.41,-18.41,-17.92
-6.99,3.93,4.92,-13.09,-13.09,-12.53
-6.89,4.09,4.91,-10.85,-10.85,-10.71
-6.92,4.28,4.98,-11.13,-11.13,-11.13
-7.21,4.22,4.88,-12.32,-12.32,-12.32
-7.20,3.98,4.77,-12.67,-12.67,-12.67
-7.36,3.53,4.68,-11.13,-11.13,-10.78
-7.56,3.40,4.54,-8.26,-8.26,-8.26
-7.71,3.41,4.53,-6.30,-6.23,-6.23
-7.65,3.36,4.47,-7.00,-7.28,-7.28
-7.70,3.19,4.36,-8.68,-8.68,-8.96
-8.02,2.85,4.39,-12.18,-12.18,-12.67
-8.24,1.30,4.41,-15.75,-15.75,-15.75
-8.44,2.03,4.48,-17.57,-17.57,-17.92
-8.43,1.88,4.56,-19.88,-19.88,-20.58
-8.26,1.68,4.57,-24.01,-24.01,-24.01
-8.01,1.38,4.50,-26.95,-27.02,-27.02
-8.04,0.84,4.49,-27.72,-27.86,-27.86
-8.48,-0.21,4.58,-24.50,-24.50,-24.50
-8.91,-0.62,4.65,-20.72,-20.23,-20.23
-9.18,-0.87,4.66,-17.57,-16.24,-16.24
-9.21,-0.46,4.59,-14.91,-14.98,-14.98
-9.65,-0.30,4.65,-22.05,-22.12,-22.12
-9.69,-0.68,4.53,-22.68,-22.68,-22.68
-9.82,-1.01,4.46,-22.12,-21.91,-21.91
-9.69,-1.22,4.34,-20.02,-19.60,-19.60
-9.44,-1.51,4.20,-17.43,-17.15,-16.10
-9.32,-1.79,4.13,-14.56,-14.28,-14.28
-9.23,-2.22,4.13,-12.11,-11.90,-11.90
-9.14,-2.24,4.13,-12.25,-12.53,-12.53
-8.73,-2.08,4.03,-15.33,-15.33,-15.33
-8.43,-2.23,3.92,-21.91,-21.91,-21.91
-8.47,-2.86,3.88,-23.38,-23.38,-23.38
-8.54,-3.47,3.79,-22.05,-22.05,-21.42
-8.55,-3.76,3.72,-19.18,-18.97,-18.97
-8.41,-3.72,3.63,-17.57,-17.43,-17.43
-8.46,-4.15,3.49,-16.24,-15.82,-15.68
-8.77,-4.55,3.51,-14.35,-14.35,-14.14
-8.79,-4.66,3.52,-12.46,-12.46,-12.53
-8.69,-4.49,3.51,-14.21,-14.21,-14.63
-8.53,-4.34,3.49,-18.06,-18.06,-18.06
-8.39,-4.50,3.38,-22.12,-22.40,-22.40
-8.29,-4.84,3.31,-22.89,-22.68,-22.68
-8.38,-5.38,3.26,-21.49,-21.49,-20.58
-8.40,-5.69,3.20,-19.04,-19.04,-18.69
-8.45,-5.72,3.21,-18.13,-18.13,-18.13
-8.40,-5.79,3.18,-18.62,-18.62,-18.62
-8.29,-5.94,3.14,-19.04,-19.04,-19.04
-8.15,-5.86,3.16,-19.81,-19.81,-20.02
-8.06,-5.86,3.15,-21.07,-21.07,-21.21
-7.93,-6.07,3.10,-21.00,-21.00,-20.79
-7.75,-6.28,3.08,-18.83,-18.83,-18.13
-7.55,-6.56,2.98,-15.54,-15.54,-14.84
-7.29,-6.43,2.80,-13.44,-13.44,-13.37
-7.15,-6.43,2.78,-14.42,-14.42,-14.42
-7.12,-6.71,2.52,-14.98,-14.77,-14.77
-7.00,-6.94,2.51,-14.21,-14.14,-14.14
-6.86,-6.99,2.61,-14.14,-14.14,-14.14
-6.69,-6.99,2.64,-14.56,-14.70,-14.70
-6.71,-7.16,2.66,-14.63,-14.14,-14.14
-6.75,-7.25,2.73,-12.67,-12.67,-12.67
-6.79,-7.24,2.81,-10.78,-10.64,-10.64
-6.86,-7.17,2.83,-10.08,-9.94,-9.94
-6.86,-7.27,2.93,-8.47,-8.47,-8.12
-6.89,-7.45,2.94,-6.51,-5.74,-5.46
-6.97,-7.38,2.93,-3.99,-3.99,-3.64
-6.97,-7.29,2.99,-2.73,-2.66,-2.66
-6.82,-7.27,2.99,-2.59,-2.52,-2.52
-6.71,-7.41,2.84,-1.33,-1.33,-1.05
-6.61,-7.44,2.78,0.77,1.05,1.05
-6.55,-7.30,2.78,3.01,3.01,3.15
-6.40,-7.38,2.68,3.85,4.06,4.27
-6.29,-7.41,2.57,4.97,4.97,5.46
-6.19,-7.37,2.50,6.16,6.16,6.16
-6.25,-7.34,2.46,6.58,6.58,6.58
-6.31,-7.25,2.48,6.37,6.37,6.30
-6.37,-7.24,2.52,6.09,6.02,5.88
-6.48,-7.29,2.52,5.46,5.39,5.39
-6.52,-7.32,2.50,4.62,4.62,4.62
-6.55,-7.29,2.49,4.27,4.27,4.34
-6.58,-7.24,2.51,4.76,4.76,4.90
-6.71,-7.27,2.63,5.18,5.18,5.18
-6.74,-7.17,2.61,5.04,5.04,5.04
-6.76,-7.10,2.70,4.62,4.62,4.62
-6.92,-7.19,2.84,4.34,4.41,4.41
-7.23,-7.38,2.87,5.67,5.67,5.67
-7.40,-7.36,2.96,9.03,9.03,9.03
-7.56,-7.18,3.17,11.90,11.90,11.90
-7.66,-7.02,3.21,13.23,13.23,13.23
-7.60,-6.77,3.22,14.21,14.21,14.42
-7.68,-6.64,3.26,15.26,15.40,15.40
-7.68,-6.59,3.27,17.29,17.29,17.43
-7.82,-6.57,3.34,18.27,18.48,18.69
-7.93,-6.50,3.35,19.32,19.32,19.88
-7.99,-6.38,3.29,21.14,21.14,21.14
-8.56,-5.89,3.19,25.83,25.83,25.83
-8.73,-5.69,3.33,27.09,27.09,27.09
-8.86,-5.57,3.33,28.21,28.21,28.21
-9.01,-5.36,3.44,28.91,28.91,29.05
-9.28,-5.04,3.55,29.26,29.26,29.26
-9.51,-4.88,3.66,29.19,29.19,29.19
-9.67,-4.69,3.68,29.75,30.03,30.03
-9.76,-4.35,3.75,30.94,30.94,30.94
-9.95,-4.00,3.91,30.94,30.94,30.94
-10.12,-3.89,4.02,31.29,31.29,31.99
-10.33,-3.65,4.08,34.65,34.65,34.65
-10.29,-3.39,4.16,38.85,38.85,38.85
-10.23,-2.92,4.25,41.02,41.02,41.44
-10.08,-2.43,4.23,42.63,42.63,42.63
-9.97,-1.97,4.22,42.84,42.84,42.84
-9.95,-1.82,4.25,42.91,42.98,42.98
-9.79,-1.45,4.19,43.19,43.19,43.26
-9.52,-0.84,4.09,42.14,42.14,42.07
-9.18,-0.30,3.86,40.81,40.81,40.74
-8.78,0.08,3.79,40.11,40.11,40.18
-8.54,0.25,3.72,40.32,40.32,40.32
-8.47,0.37,3.70,41.72,41.93,41.93
-8.28,0.71,3.63,42.84,43.05,43.05
-7.92,1.31,3.57,42.00,42.00,41.86
-7.45,2.00,3.44,40.18,39.27,38.64
-7.04,2.64,3.38,35.77,35.77,33.81
-6.94,2.74,3.32,31.01,31.01,31.01
-7.17,2.70,3.49,30.59,30.59,30.59
-7.33,2.84,3.57,31.15,31.43,31.43
-7.32,3.44,3.58,31.50,31.50,31.50
-7.04,4.36,3.61,27.58,27.58,27.58
-6.81,4.80,3.60,22.05,21.70,21.70
-6.53,5.13,3.63,19.81,19.53,19.53
-6.52,5.33,3.73,17.71,17.71,17.43
-6.37,5.66,3.84,16.17,15.68,15.40
-6.23,5.67,3.93,15.54,15.54,15.68
-6.04,5.85,3.96,16.87,16.87,17.01
-5.71,6.37,3.92,17.01,17.01,16.80
-5.29,6.58,3.86,14.98,14.98,14.56
-5.05,6.46,3.82,15.12,15.12,15.12
-4.91,6.28,3.70,19.88,19.88,19.88
-4.57,6.60,3.73,21.77,21.77,21.77
-4.24,7.22,3.80,19.67,19.67,19.25
-4.14,7.31,3.95,15.68,15.68,15.68
-4.03,7.45,3.98,13.37,13.37,12.11
-3.92,7.45,3.99,9.52,9.52,9.52
-3.67,7.42,3.94,10.29,10.50,10.50
-3.53,7.42,3.92,11.69,12.81,12.81
-3.14,7.64,3.81,14.70,15.05,15.47
-2.39,8.51,3.78,12.32,11.69,11.69
-2.03,8.51,3.77,6.09,5.74,5.74
-1.64,8.31,3.59,4.41,4.41,4.48
-1.11,8.27,3.49,4.62,4.62,4.62
-0.70,8.27,3.46,4.69,4.69,4.76
-0.35,8.17,3.48,5.32,5.32,5.32
-0.02,8.17,3.55,6.37,6.37,6.58
0.37,8.20,3.58,7.35,7.35,7.35
0.66,8.20,3.69,7.28,7.28,7.28
0.91,8.25,3.57,6.72,6.58,6.58
1.23,8.44,3.50,4.27,3.71,3.71
1.68,8.58,3.61,0.98,-0.56,-0.56
1.99,8.40,3.61,-2.38,-2.66,-2.73
2.46,7.99,3.35,-0.91,-0.91,-0.49
2.84,7.92,3.17,1.82,1.82,1.82
3.42,8.05,3.13,1.19,0.49,0.49
3.92,8.31,3.05,-1.96,-1.96,-2.87
4.11,8.12,3.04,-4.34,-4.34,-4.34
3.89,7.77,3.08,-3.36,-3.36,-3.15
3.49,7.86,3.19,-2.03,-2.03,-2.03
3.33,8.20,3.24,-2.59,-2.59,-2.59
3.10,8.39,3.30,-4.27,-4.27,-4.27
2.75,8.65,3.36,-5.60,-5.60,-5.60
2.45,8.60,3.40,-5.81,-5.81,-5.81
2.17,8.46,3.54,-5.11,-5.11,-5.11
1.91,8.62,3.69,-4.83,-4.83,-4.83
1.70,8.78,3.74,-5.39,-5.39,-5.39
1.72,8.79,3.70,-5.67,-5.46,-5.46
1.65,8.76,3.73,-4.90,-4.55,-4.55
1.58,8.65,3.77,-3.29,-2.38,-2.38
1.43,8.66,3.78,-1.19,-0.56,-0.56
1.31,8.77,3.77,-0.49,-0.49,-0.49
1.28,8.98,3.78,-3.57,-4.06,-4.06
1.23,8.97,3.84,-7.21,-7.21,-7.21
0.88,8.66,3.93,-8.19,-8.19,-8.12
0.72,8.45,3.87,-6.65,-6.65,-6.65
0.74,8.71,3.78,-4.62,-4.62,-4.62
0.93,8.92,3.80,-6.65,-6.65,-6.93
0.63,8.76,3.88,-7.42,-7.42,-7.42
0.30,8.51,3.86,-5.81,-5.81,-5.81
0.18,8.66,3.89,-5.46,-5.46,-5.46
0.15,8.90,3.93,-7.77,-7.77,-7.77
0.07,8.93,3.97,-10.01,-10.29,-10.29
-0.12,8.64,3.97,-10.57,-10.22,-10.22
-0.25,8.52,3.98,-8.82,-8.82,-8.82
-0.42,8.76,4.09,-8.96,-8.96,-9.24
-0.55,8.79,4.23,-12.18,-12.18,-12.18
-0.78,8.57,4.29,-12.81,-12.88,-12.88
-1.10,8.34,4.28,-11.48,-11.48,-11.27
-1.19,8.36,4.24,-10.15,-9.87,-9.66
-1.00,8.48,4.18,-9.03,-9.03,-8.82
-0.96,8.43,4.23,-8.82,-8.82,-8.82
-1.33,8.25,4.33,-8.33,-8.33,-8.33
-1.71,8.23,4.35,-7.91,-7.91,-7.91
-1.67,8.43,4.31,-8.75,-9.38,-9.38
-1.52,8.45,4.28,-11.55,-11.76,-11.76
-1.73,8.03,4.28,-11.69,-11.69,-11.48
-1.99,7.85,4.29,-10.50,-10.15,-9.94
-2.34,7.90,4.46,-10.01,-10.01,-10.22
-2.54,7.96,4.54,-11.48,-11.48,-11.48
-2.70,7.88,4.55,-12.46,-12.46,-12.46
-2.81,7.70,4.51,-11.90,-11.90,-11.90
-2.84,7.71,4.41,-10.85,-10.85,-10.85
-2.98,7.68,4.45,-10.92,-10.99,-10.99
-3.25,7.54,4.55,-10.92,-10.78,-10.78
-4.89,7.35,4.59,-10.43,-10.43,-10.15
-3.91,7.35,4.56,-9.38,-9.38,-9.45
-3.98,7.45,4.55,-10.64,-10.64,-10.85
-3.94,7.39,4.51,-11.69,-11.90,-11.97
-4.30,7.16,4.63,-12.25,-12.25,-12.39
-4.71,7.03,4.71,-12.11,-12.11,-11.97
-4.78,7.10,4.71,-12.60,-12.60,-12.60
-4.72,7.01,4.65,-13.02,-13.02,-13.02
-4.79,6.89,4.69,-12.60,-12.46,-12.46
-5.00,6.79,4.77,-12.81,-12.88,-12.88
-5.11,6.76,4.77,-13.72,-13.72,-13.79
-5.14,6.70,4.73,-15.05,-15.05,-15.05
-5.12,6.52,4.69,-15.54,-15.54,-15.54
-5.25,6.25,4.70,-14.98,-14.98,-14.98
-5.62,5.87,4.75,-13.23,-13.23,-13.23
-5.78,5.88,4.78,-12.53,-12.60,-12.60
-5.73,5.97,4.75,-13.44,-13.72,-13.72
-5.68,5.68,4.63,-14.28,-14.21,-14.21
-5.75,5.64,4.58,-14.42,-14.56,-14.56
-5.70,5.64,4.58,-15.47,-15.47,-15.75
-5.61,5.37,4.58,-16.73,-16.94,-16.94
-5.76,4.87,4.61,-16.66,-16.66,-16.59
-6.13,4.53,4.70,-15.96,-15.96,-15.96
-6.61,4.25,4.77,-15.61,-15.54,-15.54
-6.66,4.21,4.70,-16.03,-16.10,-16.10
-6.74,4.14,4.61,-16.59,-16.73,-16.73
-6.85,3.95,4.51,-17.08,-17.08,-17.15
-7.00,3.98,4.58,-18.83,-18.83,-19.11
-7.47,3.73,4.63,-21.42,-21.42,-21.84
-7.68,3.37,4.58,-24.22,-24.22,-24.43
-7.85,3.01,4.64,-25.41,-25.41,-25.48
-7.88,2.62,4.65,-24.71,-24.71,-24.64
-7.74,2.56,4.65,-22.96,-22.96,-22.96
-7.70,2.51,4.62,-23.66,-23.66,-23.80
-7.70,2.24,4.57,-24.71,-24.71,-24.85
-7.80,2.04,4.62,-27.37,-27.37,-27.37
-7.96,1.75,4.66,-30.17,-31.01,-31.01
-8.03,1.21,4.48,-31.85,-31.85,-31.85
-7.87,0.88,4.35,-31.50,-31.50,-31.29
-8.03,0.50,4.41,-31.08,-31.08,-31.08
-8.06,0.09,4.42,-30.87,-30.87,-30.87
-8.33,-0.27,4.43,-31.78,-31.78,-31.78
-8.75,-0.69,4.37,-32.69,-32.69,-32.69
-8.94,-0.91,4.42,-35.21,-35.49,-35.49
-9.18,-1.42,4.41,-36.82,-36.82,-36.82
-9.37,-1.78,4.28,-36.75,-36.75,-36.68
-9.17,-1.80,4.30,-36.82,-36.82,-37.03
-9.20,-2.10,4.33,-38.71,-38.71,-38.99
-8.92,-2.69,4.30,-41.65,-41.65,-41.65
-8.95,-3.33,4.30,-40.88,-40.39,-40.39
-8.87,-3.84,4.35,-38.22,-37.52,-37.52
-8.60,-4.03,4.33,-35.63,-35.42,-35.42
-8.60,-4.17,4.30,-33.95,-33.95,-33.32
-8.75,-4.53,4.21,-31.71,-31.71,-31.36
-8.96,-4.80,4.16,-28.28,-28.28,-27.93
-9.19,-4.78,4.24,-26.18,-26.18,-26.18
-9.41,-4.75,4.35,-27.51,-27.51,-27.51
-9.49,-5.09,4.35,-28.21,-28.21,-28.21
-9.34,-5.39,4.09,-25.20,-24.57,-24.57
-8.98,-5.43,4.00,-21.21,-20.65,-20.65
-8.78,-5.59,3.97,-18.34,-17.99,-17.99
-8.57,-5.63,3.96,-15.89,-15.89,-15.82
-8.29,-5.68,3.93,-16.24,-16.45,-16.45
-8.06,-5.94,3.79,-17.29,-17.29,-17.29
-7.97,-6.21,3.63,-16.17,-16.03,-16.03
-7.83,-6.22,3.63,-15.40,-15.26,-15.26
-7.67,-6.26,3.53,-15.12,-15.12,-14.98
-7.48,-6.39,3.42,-14.07,-13.86,-13.86
-7.24,-6.59,3.30,-10.71,-10.36,-10.36
-7.04,-6.53,3.30,-8.33,-8.05,-8.05
-7.01,-6.48,3.29,-7.77,-7.63,-7.77
-6.98,-6.56,3.23,-8.05,-8.05,-8.05
-6.88,-6.70,3.05,-8.26,-8.26,-8.26
-6.87,-6.70,2.84,-8.96,-8.96,-9.10
-7.03,-6.85,2.87,-10.08,-10.08,-10.22
-7.17,-7.12,2.77,-9.80,-9.80,-9.52
-7.38,-7.22,2.79,-7.98,-7.98,-7.98
-7.41,-7.07,2.83,-6.44,-6.16,-6.16
-7.36,-6.84,2.93,-5.74,-5.67,-5.67
-7.33,-6.77,2.95,-5.11,-5.11,-5.11
-7.29,-6.84,2.88,-4.20,-4.20,-3.99
-7.27,-6.82,2.93,-3.50,-3.50,-3.50
-7.22,-6.85,2.91,-3.64,-3.71,-3.71
-7.11,-7.02,2.80,-3.64,-3.64,-3.57
-6.92,-7.07,2.81,-2.80,-2.80,-2.80
-6.72,-7.09,2.77,-1.96,-1.96,-1.96
-6.53,-7.12,2.77,-0.49,-0.14,-0.14
-6.40,-7.06,2.77,0.77,0.77,0.77
-6.35,-6.96,2.78,0.77,0.77,0.91
-6.47,-7.03,2.73,0.77,0.77,0.77
-6.64,-7.12,2.72,1.19,1.40,1.40
-6.70,-7.11,2.82,1.68,1.75,1.75
-6.84,-7.06,2.85,2.10,2.10,2.24
-7.05,-7.19,2.98,3.64,3.64,3.64
-7.32,-7.33,3.13,7.56,7.56,7.56
-7.55,-7.14,3.24,10.71,10.71,10.71
-7.57,-6.87,3.34,12.18,12.46,12.46
-7.53,-6.60,3.42,12.74,12.74,12.88
-7.54,-6.50,3.40,12.81,12.81,13.09
-7.62,-6.59,3.33,14.07,14.07,14.42
-7.77,-6.51,3.22,18.90,18.90,18.90
-7.81,-6.42,3.16,19.74,20.02,20.02
-7.91,-6.40,3.18,20.86,20.86,20.86
-8.08,-6.32,3.27,22.40,22.40,22.40
-8.26,-6.42,3.31,24.29,24.92,24.92
-8.44,-6.31,3.45,27.30,27.93,27.93
-8.58,-5.95,3.52,28.98,28.98,29.12
-8.72,-5.66,3.62,29.19,29.19,29.05
-8.80,-5.35,3.69,28.91,28.91,28.91
-8.98,-5.17,3.75,29.40,29.40,29.40
-9.17,-5.05,3.73,31.50,31.50,31.50
-9.35,-4.94,3.79,33.25,33.25,33.25
-9.49,-4.66,3.81,33.74,33.95,33.95
-9.59,-4.34,3.78,34.23,34.23,34.23
-9.76,-4.20,3.80,35.70,35.98,35.98
-9.93,-4.01,3.82,37.80,38.08,38.08
-9.97,-3.77,3.83,40.46,40.46,40.60
-10.01,-3.36,3.83,40.95,40.88,41.02
-10.11,-3.04,3.88,40.81,40.81,40.74
-10.22,-2.84,3.88,40.88,40.88,40.88
-10.29,-2.34,3.86,41.23,41.23,41.23
-10.28,-2.07,3.81,41.51,41.51,41.51
-10.15,-1.62,3.73,42.70,42.77,42.77
-10.17,-1.31,3.73,44.24,44.24,44.24
-10.16,-1.00,3.72,44.80,44.94,44.94
-9.93,-0.49,3.68,44.80,44.80,44.38
-9.81,0.11,3.65,42.63,42.63,42.63
-9.53,0.34,3.60,40.74,40.74,40.74
-9.35,0.52,3.51,41.16,41.37,41.37
-8.99,0.97,3.44,41.65,41.65,41.65
-8.55,1.59,3.36,40.25,40.25,40.11
-8.06,1.92,3.16,38.78,38.78,38.78
-7.50,2.38,3.09,38.15,38.15,38.15
-7.09,2.80,3.02,36.12,36.12,36.12
-6.82,3.00,2.96,34.72,34.72,34.72
-6.60,3.41,2.94,33.67,33.67,33.67
-6.50,3.78,2.94,31.36,31.36,31.36
-6.30,4.02,2.89,30.66,30.66,30.66
-5.96,4.62,2.85,29.61,29.40,29.40
-6.01,5.41,2.97,21.21,21.14,21.14
-6.11,5.58,3.06,21.00,21.00,21.14
-6.00,5.95,3.01,21.56,21.70,21.91
-5.50,6.54,2.97,21.91,21.63,21.42
-5.05,7.16,3.04,19.39,18.41,17.99
-4.81,7.45,3.07,15.54,15.54,14.56
-4.70,7.31,3.15,13.79,13.79,13.72
-4.67,6.94,3.21,16.59,16.59,17.15
-4.34,7.29,3.13,22.26,22.47,22.47
-3.80,7.61,2.99,22.96,22.89,22.89
-3.34,7.93,2.79,22.47,22.33,21.77
-3.01,8.23,2.64,19.95,19.32,19.32
-2.89,8.33,2.63,14.35,13.93,13.93
-2.49,8.17,2.52,10.01,10.01,9.94
-2.21,8.41,2.50,7.91,7.91,7.91
-2.15,8.54,2.49,3.92,3.71,3.71
-1.97,8.49,2.49,2.66,2.59,2.31
-1.83,8.44,2.52,2.66,2.66,2.73
-1.84,8.48,2.65,4.06,4.06,4.06
-1.74,8.66,2.70,5.18,5.18,5.11
-1.41,9.02,2.72,3.71,3.71,2.73
-0.98,9.23,2.70,0.00,0.00,0.00
-0.64,9.16,2.73,-2.87,-3.29,-3.29
-0.33,8.95,2.73,-3.64,-3.64,-3.71
0.06,8.85,2.81,-2.80,-2.80,-2.80
0.26,8.92,2.93,-2.03,-2.03,-2.03
0.33,8.97,2.99,-2.45,-2.45,-2.45
0.53,8.84,2.95,-1.96,-1.96,-1.96
0.82,8.61,2.86,1.54,2.17,2.17
1.12,8.57,2.83,5.53,6.02,6.02
1.48,8.75,2.83,8.19,8.33,8.33
2.77,8.88,2.47,5.81,5.81,5.39
3.02,8.69,2.40,3.85,3.85,3.64
3.11,8.55,2.33,2.80,2.80,2.80
3.04,8.62,2.36,0.63,0.63,0.63
2.83,8.60,2.37,-1.61,-1.61,-1.61
2.67,8.86,2.49,-2.38,-2.38,-2.38
2.32,9.20,2.68,-5.81,-5.81,-5.81
2.20,9.20,2.68,-6.51,-6.51,-6.51
2.03,9.21,2.75,-6.79,-6.79,-6.86
1.82,9.17,2.83,-7.35,-7.35,-7.35
1.70,8.94,2.73,-6.44,-6.44,-6.44
1.59,8.83,2.73,-5.60,-5.32,-5.32
1.47,8.82,2.68,-4.83,-4.69,-4.69
1.44,9.04,2.70,-4.90,-4.90,-5.11
1.41,9.24,2.70,-7.00,-7.00,-7.00
1.23,9.27,2.83,-8.96,-9.87,-9.87
0.89,9.17,2.94,-10.85,-11.06,-11.20
0.81,9.00,2.93,-11.20,-11.20,-11.20
0.65,9.02,3.05,-11.13,-11.13,-11.13
0.40,8.94,3.14,-11.06,-11.06,-10.99
0.29,8.97,3.13,-10.64,-10.64,-10.64
0.15,9.01,3.18,-10.99,-10.99,-10.99
0.03,8.92,3.16,-10.92,-10.92,-10.92
-0.18,8.88,3.26,-10.50,-10.50,-10.50
-0.48,9.00,3.36,-10.64,-10.64,-10.64
-0.66,9.13,3.36,-12.11,-12.11,-12.11
-0.78,9.10,3.40,-13.44,-13.44,-13.44
-1.00,9.00,3.45,-13.37,-13.37,-13.37
-1.27,8.82,3.47,-11.97,-11.97,-11.97
-1.44,8.80,3.53,-9.66,-9.66,-9.66
-1.52,8.82,3.57,-8.26,-8.26,-8.26
-1.55,8.88,3.68,-7.84,-7.84,-7.84
-1.48,8.97,3.62,-8.47,-8.75,-8.75
-1.45,8.94,3.59,-9.80,-9.94,-9.94
-1.48,8.63,3.56,-10.22,-10.08,-10.08
-1.59,8.51,3.59,-9.24,-8.96,-8.96
-1.73,8.41,3.64,-8.40,-8.26,-8.26
-1.99,8.45,3.77,-8.05,-8.05,-8.05
-2.16,8.47,3.76,-8.40,-8.40,-8.40
-2.30,8.42,3.68,-8.47,-8.40,-8.40
-2.32,8.29,3.57,-7.49,-7.35,-7.35
-2.55,8.26,3.65,-7.07,-7.21,-7.21
-2.83,8.19,3.74,-7.42,-7.21,-7.21
-3.33,7.89,3.82,-7.63,-7.56,-7.56
-3.61,7.83,3.73,-7.42,-7.42,-7.35
-3.74,7.96,3.69,-7.56,-7.77,-7.77
-3.83,8.05,3.65,-8.33,-8.33,-8.82
-4.15,7.99,3.66,-9.94,-9.94,-9.94
-4.21,7.88,3.68,-11.62,-11.62,-11.62
-4.19,7.84,3.74,-13.23,-14.07,-14.07
-4.23,7.70,3.81,-15.82,-15.82,-15.82
-4.30,7.37,3.89,-17.08,-17.08,-17.08
-4.41,7.21,3.99,-16.80,-16.80,-16.80
-4.38,7.14,3.92,-16.17,-16.03,-16.03
-4.27,7.04,3.89,-15.89,-15.89,-15.89
-4.29,7.02,3.96,-16.38,-16.38,-16.38
-4.61,6.73,4.08,-17.15,-17.15,-17.15
-4.96,6.40,4.20,-17.15,-17.08,-17.08
-5.17,6.14,4.19,-16.52,-15.89,-15.89
-5.34,6.14,4.15,-15.05,-15.19,-15.19
-5.53,6.17,4.24,-16.17,-16.17,-16.17
-5.79,5.85,4.12,-16.38,-16.38,-16.38
-6.00,5.68,3.97,-14.28,-14.21,-14.21
-6.12,5.64,4.05,-15.33,-15.33,-15.47
-6.54,5.31,4.23,-16.73,-17.15,-17.43
-7.22,4.83,4.35,-17.92,-17.92,-17.92
-7.50,4.72,4.24,-17.43,-17.43,-17.43
-7.36,5.00,4.18,-19.39,-19.39,-19.39
-7.29,4.91,4.21,-21.42,-21.84,-21.84
-7.56,4.52,4.26,-22.68,-22.75,-22.75
-7.48,4.36,4.32,-23.38,-23.38,-23.45
-7.42,4.19,4.42,-24.71,-25.34,-25.55
-7.45,3.85,4.47,-26.32,-26.32,-26.39
-7.33,3.49,4.56,-25.97,-25.97,-25.97
-7.48,3.16,4.68,-24.50,-24.50,-24.50
-7.56,2.90,4.69,-22.47,-22.47,-22.47
-7.43,2.93,4.60,-20.37,-20.37,-20.37
-7.45,2.96,4.67,-21.77,-21.77,-21.77
-7.80,2.45,4.69,-22.26,-22.26,-22.26
-7.94,2.25,4.59,-21.42,-21.35,-21.35
-8.26,1.96,4.59,-21.77,-21.84,-21.84
-8.43,1.53,4.50,-21.42,-21.42,-21.28
-8.44,1.27,4.50,-20.23,-20.23,-20.30
-8.32,0.32,4.30,-19.32,-19.32,-18.90
-8.41,0.27,4.29,-18.48,-18.48,-18.48
-8.43,0.07,4.24,-19.32,-19.32,-19.32
-8.30,-0.34,4.13,-19.32,-19.46,-19.46
-8.25,-0.35,3.94,-21.07,-21.07,-21.35
-8.22,-0.51,3.79,-24.08,-24.08,-24.43
-8.20,-1.02,3.66,-26.95,-26.95,-26.95
-8.24,-1.97,3.66,-26.67,-26.67,-26.67
-8.39,-2.62,3.69,-24.71,-24.71,-24.71
-8.58,-3.07,3.75,-25.20,-25.83,-25.83
-9.08,-3.49,3.79,-27.72,-28.14,-28.77
-9.40,-4.07,3.66,-29.26,-29.19,-29.19
-9.65,-4.09,3.82,-29.89,-29.89,-30.03
-9.45,-4.20,3.87,-29.33,-29.33,-29.33
-9.33,-4.24,3.88,-26.67,-26.67,-26.67
-9.25,-4.21,3.87,-25.76,-25.76,-25.76
-9.17,-4.51,3.90,-25.20,-25.20,-24.78
-8.79,-5.32,3.33,-21.49,-21.49,-21.49
-7.36,-5.40,3.32,-22.96,-23.31,-23.31
-8.41,-5.48,3.23,-25.76,-25.76,-26.04
-8.22,-5.66,3.24,-26.46,-26.53,-26.53
-8.14,-5.78,3.45,-26.60,-26.60,-26.60
-8.17,-5.96,3.45,-26.39,-26.04,-25.83
-8.14,-6.30,3.46,-24.15,-24.15,-22.75
-8.09,-6.46,3.50,-20.23,-20.23,-19.60
-8.06,-6.61,3.47,-15.47,-15.47,-14.98
-7.93,-6.77,3.45,-12.60,-11.83,-11.27
-7.87,-6.85,3.42,-9.24,-9.24,-8.33
-7.72,-6.67,3.28,-7.56,-7.56,-7.56
-7.65,-6.37,3.16,-9.80,-9.80,-10.15
-7.64,-6.50,2.98,-13.23,-13.23,-13.23
-7.58,-6.83,2.86,-13.30,-12.95,-12.95
-7.50,-7.12,2.71,-10.99,-10.78,-10.78
-7.37,-7.13,2.59,-8.47,-8.47,-7.42
-7.15,-7.08,2.52,-5.95,-5.95,-5.95
-6.94,-7.01,2.47,-4.83,-4.83,-4.69
-6.92,-6.94,2.51,-5.39,-5.81,-6.02
-7.02,-7.21,2.69,-6.79,-6.72,-6.79
-7.01,-7.56,2.75,-4.90,-4.90,-4.90
-7.04,-7.54,2.90,-2.45,-2.24,-2.24
-7.11,-7.37,2.96,-1.61,-1.26,-1.26
-7.10,-7.24,3.01,-0.63,-0.49,-0.28
-7.32,-7.09,3.19,0.28,0.28,0.42
-7.37,-7.20,3.15,1.47,1.68,1.68
-7.48,-7.23,3.22,4.20,4.20,4.48
-7.57,-7.26,3.19,6.72,6.72,7.28
-7.61,-7.33,3.12,11.34,11.34,11.34
-7.70,-7.13,3.09,13.51,14.00,14.00
-7.72,-6.87,3.06,15.05,15.19,15.19
-7.82,-6.78,3.06,15.68,15.68,15.96
-7.91,-6.69,3.07,16.45,16.45,16.45
-8.16,-6.66,3.06,17.50,17.99,17.99
-8.47,-6.56,3.03,19.39,19.53,19.53
-8.70,-6.42,3.06,21.00,21.00,21.07
-8.92,-6.18,3.05,20.72,20.72,20.58
-9.14,-6.04,3.09,20.37,20.44,20.44
-9.36,-5.95,3.11,21.35,21.49,21.49
-9.54,-5.64,3.12,22.05,22.05,21.91
-9.64,-5.30,3.19,21.49,21.14,21.07
-9.92,-5.18,3.25,19.88,19.88,19.88
-10.07,-5.06,3.24,20.02,20.23,20.23
-10.18,-5.00,3.33,21.63,21.84,21.84
-10.24,-4.77,3.31,23.03,23.31,23.31
-10.19,-4.34,3.30,25.69,25.83,25.83
-10.08,-3.91,3.41,26.46,26.32,26.32
-9.99,-3.46,3.49,25.76,25.90,25.90
-9.88,-3.26,3.55,26.46,26.74,26.74
-9.75,-3.19,3.56,29.47,30.10,30.10
-9.73,-2.73,3.64,32.13,32.55,33.11
-9.69,-1.95,3.69,34.51,34.51,34.65
-9.43,-0.94,3.74,32.34,32.34,32.34
-9.46,-0.67,3.66,31.99,31.99,31.99
-9.37,-0.14,3.63,31.43,31.43,31.08
-9.16,0.23,3.61,29.68,29.68,29.47
-8.71,0.71,3.40,29.75,29.75,29.75
-8.35,1.19,3.32,29.40,29.19,29.19
-7.98,1.34,3.34,29.05,29.40,29.40
-7.71,1.34,3.38,31.64,31.64,31.64
-7.48,1.65,3.43,34.65,34.86,34.86
-6.90,2.46,3.54,34.86,34.72,34.72
-6.46,3.30,3.57,30.17,29.75,29.75
-6.10,3.47,3.57,27.23,27.23,27.23
-5.84,3.59,3.58,27.23,27.37,27.37
-5.78,3.77,3.69,29.33,29.61,29.61
-5.94,3.97,3.80,31.08,31.08,31.08
-6.12,4.28,3.95,32.13,32.06,32.06
-5.94,4.96,4.00,31.36,31.01,31.01
-5.73,5.62,3.83,27.44,26.95,26.95
-5.70,5.92,3.97,17.71,17.71,17.71
-5.97,5.64,4.11,20.09,21.14,21.14
-6.11,5.90,4.14,24.01,24.01,24.64
-5.80,6.59,4.01,25.48,25.48,25.34
-5.29,7.18,3.78,23.03,23.03,23.03
-5.11,7.33,3.81,20.16,20.16,20.16
-5.10,6.87,3.83,20.44,20.79,20.79
-5.20,6.70,3.91,22.89,24.22,24.22
-4.93,7.05,3.74,26.11,26.39,26.81
-4.44,7.65,3.57,26.25,26.25,26.11
-4.00,7.81,3.43,24.22,24.22,24.22
-3.68,7.91,3.43,22.61,21.91,21.91
-3.47,8.14,3.35,18.97,18.41,18.41
-3.24,8.15,3.32,14.77,14.77,14.56
-3.06,8.04,3.30,14.21,14.28,14.42
-2.94,7.98,3.28,15.61,16.24,16.59
-2.43,7.99,3.17,19.04,19.46,19.46
-1.98,8.37,2.99,20.79,20.79,20.58
-1.72,8.90,3.00,18.13,16.73,16.10
-1.62,8.84,3.06,11.69,11.69,11.69
-1.72,8.28,3.00,11.27,11.27,11.27
-1.55,8.04,2.90,14.49,15.05,16.03
-1.31,8.34,2.89,17.78,17.92,17.92
-0.99,8.93,2.78,16.94,16.38,16.38
-0.75,9.30,2.78,11.69,10.78,10.78
-0.57,9.09,2.89,4.20,4.20,3.85
-0.51,8.88,2.93,2.66,2.66,2.80
-0.45,8.63,2.96,3.99,3.99,3.99
-0.22,8.65,3.05,6.86,7.21,7.21
0.13,8.91,3.05,8.47,8.82,8.82
0.45,9.01,2.98,9.38,9.66,9.80
0.85,8.87,2.86,10.99,10.99,11.97
1.36,8.83,2.75,13.65,13.65,14.00
1.73,8.98,2.59,15.12,15.12,15.12
2.16,9.13,2.45,14.56,14.56,14.35
2.50,8.91,2.19,12.60,12.60,12.46
2.83,8.73,1.96,12.04,12.04,12.04
3.21,8.75,1.87,11.13,11.13,11.13
3.46,8.86,1.82,7.77,7.77,7.77
3.60,8.85,1.81,2.66,1.96,1.96
3.59,8.73,1.82,-1.26,-1.82,-1.82
3.45,8.69,1.89,-3.08,-3.36,-3.64
3.17,8.78,1.99,-4.20,-4.34,-4.34
2.89,8.91,2.13,-4.62,-4.62,-4.76
2.34,8.96,2.30,-4.97,-4.97,-5.11
1.81,9.03,2.44,-6.16,-6.16,-6.16
1.40,9.36,2.46,-10.22,-10.50,-10.50
1.23,9.27,2.42,-12.18,-12.18,-12.18
1.01,9.16,2.53,-11.76,-11.76,-11.69
0.80,9.10,2.64,-11.20,-11.20,-11.27
0.39,9.17,2.90,-10.78,-10.78,-10.78
0.30,9.03,3.00,-8.47,-8.47,-8.47
0.23,8.93,3.07,-6.23,-6.23,-6.23
0.17,9.20,3.19,-5.81,-5.88,-5.88
0.11,9.30,3.21,-7.14,-7.42,-7.42
0.01,9.26,3.13,-8.68,-8.89,-8.89
-0.17,9.07,3.17,-9.59,-9.59,-9.59
-0.44,8.85,3.10,-8.54,-8.33,-8.33
-0.48,8.73,3.01,-7.07,-6.37,-6.37
-0.63,8.90,3.07,-6.09,-6.09,-6.16
-0.75,9.04,3.09,-7.42,-7.42,-7.42
-0.83,9.17,3.13,-8.54,-8.96,-8.96
-1.13,8.98,3.18,-9.10,-9.10,-9.10
-1.42,8.78,3.08,-6.79,-6.51,-6.51
-1.55,9.00,3.04,-5.95,-5.95,-6.16
-1.48,9.18,2.99,-7.00,-7.14,-7.14
-1.51,9.06,3.03,-8.89,-8.89,-9.03
-1.59,8.88,2.99,-9.17,-9.17,-9.17
-1.79,8.80,3.08,-10.92,-10.92,-11.13
-2.13,8.63,3.18,-13.16,-13.16,-13.23
-2.41,8.38,3.28,-13.65,-13.65,-13.65
-2.70,8.09,3.35,-11.97,-11.97,-11.48
-2.79,8.24,3.25,-8.68,-8.68,-8.68
-2.59,8.72,3.28,-10.08,-10.08,-10.08
-2.63,8.87,3.42,-14.56,-16.38,-16.38
-2.89,8.26,3.54,-17.29,-17.15,-16.80
-3.19,7.93,3.59,-13.86,-13.86,-13.65
-3.22,8.27,3.65,-12.32,-12.32,-12.25
-3.40,8.28,3.74,-13.16,-13.16,-13.16
-3.65,8.07,3.73,-12.53,-12.53,-12.53
-3.80,8.15,3.66,-12.32,-12.32,-12.32
-3.79,8.30,3.63,-14.84,-14.84,-14.84
-3.86,8.06,3.65,-16.73,-16.80,-16.80
-4.18,7.46,3.74,-16.87,-16.59,-16.59
-4.48,7.24,3.79,-14.49,-14.49,-14.14
-4.63,7.45,3.82,-13.16,-13.23,-13.23
-4.59,7.54,3.95,-14.49,-14.49,-14.77
-4.73,7.28,3.97,-14.42,-14.42,-14.42
-4.87,7.10,3.95,-12.46,-12.46,-12.46
-4.85,7.31,4.00,-12.25,-12.25,-12.25
-4.90,7.28,3.99,-13.65,-13.65,-13.65
-4.99,7.06,3.96,-14.07,-14.07,-14.07
-5.09,6.86,4.09,-14.56,-14.49,-14.49
-5.30,6.51,4.13,-13.79,-13.44,-13.44
-5.39,6.33,4.11,-11.62,-11.62,-11.34
-5.55,6.17,4.01,-8.89,-8.89,-8.61
-5.67,6.22,3.96,-7.63,-7.63,-7.56
-6.01,6.18,4.10,-8.82,-8.82,-8.82
-6.31,5.85,4.04,-9.87,-9.87,-9.87
-6.32,5.76,3.97,-9.94,-9.94,-9.94
-6.29,5.81,3.94,-10.85,-11.62,-11.62
-6.24,5.79,3.88,-13.44,-13.44,-13.44
-6.30,5.58,3.78,-15.68,-15.68,-15.68
-6.91,4.64,3.92,-18.34,-18.55,-18.55
-6.90,4.51,3.95,-19.60,-19.60,-19.74
-6.94,4.31,3.99,-20.65,-20.65,-20.79
-6.79,4.35,3.95,-23.10,-23.10,-23.10
-6.87,3.98,4.05,-24.99,-25.48,-25.48
-7.23,3.34,4.13,-25.48,-25.48,-24.92
-7.55,2.94,4.18,-22.96,-22.96,-22.61
-7.82,2.76,4.28,-20.79,-20.79,-20.79
-7.98,2.75,4.34,-20.72,-20.72,-20.72
-8.19,2.76,4.39,-21.56,-21.56,-21.56
-8.42,2.66,4.47,-22.61,-22.96,-22.96
-8.66,2.32,4.54,-23.24,-23.03,-23.03
-8.83,1.91,4.57,-21.42,-21.42,-21.14
-8.83,1.83,4.46,-17.99,-17.99,-17.64
-8.85,1.93,4.46,-16.87,-16.87,-16.94
-8.86,1.75,4.45,-17.43,-17.43,-17.43
-9.06,0.75,4.53,-16.38,-16.38,-16.38
-9.27,0.22,4.60,-15.89,-15.89,-15.89
-9.16,-0.06,4.55,-14.84,-14.98,-15.05
-9.11,-0.19,4.57,-15.68,-15.89,-15.89
-8.95,-0.44,4.47,-16.10,-15.96,-15.96
-8.94,-0.77,4.41,-14.35,-14.35,-14.14
-9.08,-0.83,4.35,-11.97,-11.97,-11.97
-9.21,-0.68,4.24,-10.36,-10.36,-10.36
-9.30,-0.81,4.14,-10.15,-10.15,-9.87
-9.38,-0.99,3.96,-9.31,-9.10,-9.10
-9.53,-1.26,4.00,-8.75,-8.75,-8.75
-9.72,-1.47,3.96,-8.89,-8.89,-8.89
-9.71,-1.64,3.94,-10.50,-10.50,-10.50
-9.79,-2.03,3.85,-10.64,-10.64,-10.64
-9.42,-2.33,3.77,-9.73,-9.73,-9.73
-9.26,-2.46,3.74,-9.87,-10.01,-10.01
-8.99,-2.39,3.63,-10.64,-10.78,-10.78
-8.57,-2.37,3.56,-12.32,-12.60,-12.60
-8.40,-2.74,3.48,-13.58,-13.72,-13.72
-8.44,-3.26,3.65,-12.88,-12.88,-12.60
-8.47,-3.80,3.64,-10.08,-10.08,-9.66
-8.36,-3.86,3.56,-6.16,-6.16,-6.16
-8.24,-3.45,3.52,-6.58,-7.28,-7.28
-8.38,-3.53,3.53,-10.15,-10.15,-10.50
-8.63,-3.78,3.42,-11.69,-11.69,-11.69
-8.84,-4.00,3.39,-11.41,-11.41,-11.41
-9.03,-4.23,3.35,-9.87,-9.87,-9.87
-8.93,-4.28,3.30,-8.82,-8.54,-8.54
-8.82,-4.31,3.26,-8.12,-8.12,-8.05
-8.72,-4.47,3.22,-7.70,-7.70,-7.70
-8.68,-4.78,3.14,-6.58,-6.58,-6.58
-8.59,-4.77,3.12,-7.49,-7.49,-7.49
-8.44,-4.72,3.07,-9.80,-9.80,-9.80
-8.08,-4.80,3.04,-12.39,-12.39,-12.39
-7.92,-5.02,3.03,-14.77,-14.77,-14.77
-7.68,-5.38,2.93,-14.35,-14.35,-14.35
-7.59,-5.55,2.90,-12.25,-12.04,-12.04
-7.74,-5.60,3.01,-12.25,-12.60,-12.60
-7.82,-5.86,3.01,-12.60,-12.53,-12.53
-7.86,-5.99,3.11,-11.69,-11.69,-11.62
-8.08,-6.08,3.22,-11.41,-11.41,-11.27
-8.22,-6.14,3.20,-10.15,-10.15,-9.87
-8.35,-6.06,3.27,-8.75,-8.75,-8.54
-8.44,-5.99,3.29,-6.65,-6.65,-6.65
-8.39,-5.86,3.29,-5.11,-4.97,-4.97
-8.30,-5.85,3.22,-4.69,-4.69,-4.62
-8.07,-5.96,3.06,-3.92,-3.92,-3.92
-7.93,-6.14,2.87,-2.73,-2.73,-2.38
-8.03,-6.20,2.81,1.96,2.03,2.03
-8.23,-6.21,3.01,5.32,5.32,5.32
-8.25,-6.15,3.01,6.93,6.93,6.93
-8.26,-5.78,2.95,7.21,7.14,7.14
-8.42,-5.89,3.01,6.93,6.86,6.86
-8.54,-6.03,3.08,7.42,7.63,7.91
-8.82,-6.12,3.13,8.89,8.96,9.38
-9.13,-5.87,3.24,10.92,10.92,11.20
-9.27,-5.52,3.24,12.60,12.60,12.60
-9.34,-5.11,3.20,13.44,13.44,13.44
-9.45,-4.88,3.15,13.58,13.72,13.72
-9.77,-5.02,2.81,17.15,17.15,17.64
-9.95,-5.11,2.80,21.00,21.00,21.00
-10.00,-5.02,2.79,22.89,23.38,23.38
-10.02,-4.62,2.85,23.87,23.87,23.87
-10.05,-4.16,2.90,22.12,22.12,22.12
-10.02,-3.87,2.93,20.93,20.93,20.93
-10.10,-3.70,2.95,20.30,20.30,20.30
-10.14,-3.52,3.01,20.58,20.79,20.79
-10.15,-3.35,3.01,21.77,21.77,22.12
-10.11,-2.95,3.01,23.03,23.03,23.03
-10.01,-2.53,3.05,22.40,22.40,22.40
-10.05,-2.56,3.07,23.03,23.03,23.03
-9.98,-2.34,3.00,25.97,25.97,25.97
-9.97,-1.78,3.00,28.21,28.21,28.21
-9.83,-1.05,3.02,26.81,26.53,26.53
-9.65,-0.56,2.93,25.34,24.71,24.71
-9.39,-0.10,2.82,23.80,23.66,23.17
-9.10,0.27,2.72,22.12,22.12,22.12
-9.04,0.27,2.70,22.33,22.96,22.96
-9.16,0.30,2.71,25.20,25.20,26.25
-9.12,0.61,2.61,28.56,28.56,28.56
-8.72,1.42,2.52,29.75,29.75,29.75
-8.28,2.28,2.49,25.34,24.71,24.71
-7.88,2.73,2.38,20.65,19.95,19.95
-7.66,2.75,2.35,17.01,16.80,16.80
-7.48,2.82,2.32,16.31,16.38,16.38
-7.51,2.86,2.44,16.66,16.73,16.73
-7.39,3.15,2.45,17.36,17.36,17.50
-7.10,3.94,2.38,17.50,17.50,17.50
-6.64,4.58,2.36,16.10,16.10,16.10
-6.39,4.98,2.42,12.88,12.88,11.83
-6.41,5.19,2.57,9.03,9.03,9.03
-6.54,5.04,2.73,6.37,6.37,6.16
-6.69,4.95,2.78,6.93,6.93,6.93
-6.60,5.04,2.72,11.83,11.83,11.83
-6.41,5.45,2.79,14.49,14.49,14.49
-6.25,6.09,2.76,13.93,13.93,13.93
-6.14,6.39,2.81,11.62,11.62,11.62
-6.14,6.44,2.89,9.24,9.24,9.24
-6.19,6.40,2.87,9.03,9.03,9.03
-6.29,6.54,2.86,9.66,9.73,9.73
-6.17,6.81,2.81,10.01,10.08,10.08
-6.08,6.92,2.77,11.48,11.48,11.69
-5.86,7.13,2.67,12.67,12.67,12.67
-5.69,7.33,2.68,11.90,11.90,11.90
-5.54,7.43,2.68,10.57,10.43,10.43
-5.61,7.41,2.71,7.98,7.98,7.84
-5.52,7.32,2.64,7.63,7.63,7.91
-5.34,7.39,2.65,7.84,7.84,7.84
-5.08,7.70,2.71,6.65,6.65,6.65
-4.56,7.76,3.06,2.10,2.10,2.10
-4.38,7.92,3.00,3.08,3.08,3.08
-4.03,8.13,2.91,4.06,4.06,4.06
-3.46,8.39,2.82,4.83,4.83,4.83
-3.12,8.60,2.83,4.34,4.13,4.13
-2.77,8.71,2.83,3.29,2.94,2.94
-2.44,8.74,2.80,2.24,2.10,1.89
-2.03,8.78,2.80,1.26,1.26,1.12
-1.71,8.82,2.83,0.00,0.00,0.00
-1.55,8.64,2.85,-0.35,-0.35,-0.35
-1.30,8.37,2.91,3.15,3.15,3.15
-1.07,8.35,2.96,7.00,7.00,7.00
-0.94,8.58,2.85,8.82,9.10,9.10
-0.62,9.10,2.88,8.05,8.05,7.63
-0.39,9.19,2.91,4.13,4.13,4.13
-0.38,8.93,2.94,2.59,2.73,2.73
-0.37,8.55,2.91,4.69,5.18,5.18
-0.24,8.46,2.85,9.59,9.59,9.59
-0.11,8.80,2.76,11.34,11.34,11.34
0.11,9.23,2.64,8.75,8.19,8.19
0.31,9.36,2.65,4.76,4.41,4.41
0.58,9.20,2.59,3.29,3.29,3.29
0.78,9.18,2.53,3.57,3.57,3.57
1.03,9.45,2.51,1.96,1.96,1.96
1.31,9.52,2.49,-0.14,-0.56,-0.56
1.43,9.22,2.49,-1.82,-1.82,-1.89
1.59,8.85,2.48,-0.07,-0.07,0.28
1.69,8.84,2.45,1.96,1.96,2.10
1.97,9.03,2.46,-0.70,-0.70,-0.91
1.97,8.83,2.54,-2.94,-2.94,-2.94
1.88,8.82,2.59,-2.94,-2.94,-2.80
1.73,8.97,2.65,-2.73,-2.73,-2.73
1.62,9.14,2.68,-3.01,-2.94,-2.94
1.42,9.11,2.74,-2.38,-2.31,-2.31
1.27,9.10,2.79,-0.42,0.00,0.00
1.16,9.17,2.79,3.01,3.01,3.29
1.17,9.31,2.71,4.69,4.69,4.69
1.27,9.48,2.54,4.62,4.62,4.62
1.30,9.60,2.55,2.73,2.73,2.73
1.21,9.53,2.54,0.98,0.98,0.98
1.00,9.27,2.59,-0.77,-0.84,-0.84
0.72,9.03,2.53,-1.26,-1.26,-1.26
0.69,9.17,2.50,-2.59,-2.59,-2.59
0.77,9.35,2.52,-7.35,-7.35,-7.35
0.77,9.20,2.52,-9.80,-10.29,-10.29
0.67,8.97,2.61,-10.78,-10.78,-10.71
0.52,9.02,2.89,-11.48,-11.48,-11.48
0.40,9.14,2.94,-12.32,-12.60,-12.60
0.43,9.15,2.95,-12.95,-12.95,-12.95
0.43,9.08,3.02,-12.32,-12.32,-12.32
0.34,8.95,3.04,-10.57,-10.22,-10.22
0.26,8.83,3.00,-6.09,-6.09,-6.09
0.13,8.91,3.09,-3.92,-3.92,-3.92
-0.06,9.01,3.17,-4.41,-4.76,-4.76
-0.21,8.99,3.12,-5.53,-5.53,-5.60
-0.43,8.90,3.08,-5.95,-5.95,-5.95
-0.54,8.77,3.01,-5.46,-5.46,-5.46
-0.63,8.78,2.98,-5.39,-5.39,-5.39
-0.90,8.81,3.13,-6.93,-7.00,-7.00
-1.23,8.57,3.09,-7.49,-7.35,-7.35
-1.70,8.37,3.02,-6.30,-6.30,-6.30
-1.80,8.56,2.81,-5.88,-6.02,-6.02
-1.89,8.82,2.78,-7.70,-7.91,-7.91
-2.05,8.71,2.82,-10.43,-10.92,-11.20
-2.35,8.35,2.80,-11.76,-11.76,-11.83
-2.64,8.27,2.80,-12.81,-12.81,-12.81
-2.74,8.43,2.88,-16.59,-16.59,-16.59
-2.87,8.30,2.99,-19.81,-20.09,-20.09
-2.99,7.88,3.13,-21.70,-21.70,-21.70
-3.09,7.60,3.35,-22.33,-22.33,-22.33
-3.06,7.34,3.50,-22.61,-22.61,-22.47
-3.33,7.05,3.55,-20.16,-20.16,-20.16
-3.83,6.82,3.78,-16.10,-16.10,-16.10
-4.30,7.15,3.82,-14.49,-14.49,-14.49
-4.70,7.57,3.84,-16.38,-16.38,-16.38
-5.03,7.43,3.71,-21.07,-21.07,-21.07
-5.33,7.01,3.75,-21.70,-21.70,-21.70
-5.52,6.63,3.69,-20.30,-20.30,-20.30
-5.45,6.69,3.64,-18.83,-18.83,-18.83
-5.51,6.59,3.70,-19.67,-19.67,-19.67
-5.64,6.27,3.69,-19.18,-18.90,-18.90
-5.81,6.17,3.84,-18.62,-18.62,-18.90
-6.08,6.03,3.86,-19.95,-20.37,-20.51
-6.28,5.71,3.89,-21.07,-21.07,-21.07
-6.47,5.47,3.91,-21.00,-20.93,-20.93
-6.82,5.18,3.88,-19.88,-19.88,-19.88
-6.92,5.16,3.90,-18.69,-18.62,-18.62
-7.14,5.03,3.89,-18.55,-18.55,-18.62
-7.40,4.90,3.91,-18.62,-18.83,-18.90
-7.72,4.86,4.03,-20.02,-20.02,-20.86
-8.09,4.47,4.14,-21.56,-21.56,-21.63
-8.19,4.17,4.16,-21.21,-21.21,-21.21
-8.15,4.13,4.17,-22.26,-22.26,-22.26
-7.91,4.13,4.16,-23.17,-23.17,-23.17
-7.69,3.96,4.12,-24.50,-24.57,-24.57
-7.67,3.43,4.05,-23.24,-23.24,-23.24
-7.65,3.29,4.07,-21.70,-21.70,-21.77
-7.58,3.09,4.09,-23.38,-23.38,-23.38
-7.84,2.25,4.13,-23.10,-23.10,-22.89
-8.17,1.89,4.18,-21.63,-21.63,-21.63
-8.14,1.87,4.06,-21.49,-21.49,-21.49
-8.15,1.73,4.04,-22.61,-22.75,-22.75
-8.36,1.21,4.07,-23.45,-23.38,-23.38
-8.59,0.95,4.02,-22.82,-22.89,-22.89
-8.73,0.80,4.02,-22.89,-23.03,-23.10
-9.06,0.43,4.01,-23.38,-23.24,-23.03
-9.10,0.26,3.94,-22.75,-22.75,-22.89
-9.17,0.21,3.94,-23.80,-23.80,-23.80
-9.28,-0.10,3.96,-24.85,-25.06,-25.06
-9.18,-0.42,3.91,-25.34,-25.55,-25.55
-9.09,-0.68,3.94,-26.39,-26.39,-26.39
-8.96,-1.49,3.95,-26.32,-26.32,-26.32
-8.81,-1.63,3.90,-26.11,-26.25,-26.25
-8.75,-1.95,3.97,-27.30,-27.23,-27.23
-8.95,-2.63,4.03,-26.67,-26.25,-26.25
-9.22,-3.36,4.04,-26.32,-25.83,-25.55
-9.53,-3.68,3.88,-22.54,-22.54,-22.61
-9.47,-3.71,3.79,-23.10,-23.10,-23.10
-9.04,-4.46,3.70,-22.33,-22.33,-22.33
-8.74,-4.78,3.67,-18.83,-18.83,-18.83
-8.37,-4.62,3.65,-19.95,-19.95,-19.95
-8.20,-4.97,3.63,-21.91,-21.91,-22.05
-8.21,-5.51,3.50,-21.07,-21.07,-21.07
-8.15,-5.68,3.54,-19.46,-19.46,-19.46
-8.11,-5.69,3.57,-18.62,-18.34,-18.34
-7.98,-5.76,3.52,-17.08,-16.73,-16.73
-7.99,-5.87,3.55,-15.96,-15.68,-15.54
-8.05,-6.00,3.53,-14.35,-14.35,-13.51
-8.04,-5.99,3.55,-12.95,-12.95,-12.95
-8.04,-6.21,3.47,-13.44,-13.44,-13.44
-7.88,-6.38,3.33,-12.25,-12.25,-12.25
-7.60,-6.49,3.23,-10.85,-10.85,-10.64
-7.41,-6.49,3.18,-10.99,-10.99,-11.06
-7.36,-6.59,3.17,-12.32,-12.32,-12.60
-7.35,-6.91,3.12,-13.02,-13.02,-12.95
-7.30,-7.02,3.09,-12.53,-12.39,-12.39
-7.28,-7.17,3.07,-11.34,-11.34,-10.99
-7.28,-7.43,3.04,-8.75,-7.77,-7.28
-7.14,-7.23,3.08,-4.83,-4.83,-4.83
-7.07,-7.01,3.13,-4.62,-4.62,-4.83
-7.00,-6.99,3.10,-5.04,-4.97,-4.97
-7.04,-7.05,3.10,-5.46,-5.60,-5.60
-6.99,-7.18,3.11,-5.67,-5.74,-5.74
-6.92,-7.45,3.02,-5.11,-5.11,-5.11
-6.75,-7.58,2.90,-1.96,-1.61,-1.61
-6.64,-7.36,2.90,0.00,0.63,0.63
-6.47,-7.11,2.92,0.70,0.63,0.35
-6.28,-7.18,2.93,-0.14,-0.21,-0.21
-6.11,-7.33,2.80,0.14,0.14,0.14
-6.06,-7.42,2.79,1.33,1.33,1.33
-6.12,-7.37,2.83,1.47,1.47,1.47
-6.49,-7.41,2.68,1.05,1.05,1.05
-6.50,-7.26,2.62,0.84,0.84,0.77
-6.55,-7.09,2.71,0.77,0.70,0.70
-6.67,-7.01,3.11,-0.14,-0.14,-0.21
-6.65,-7.23,3.21,-0.21,-0.21,0.07
-6.53,-7.54,3.16,1.68,1.68,2.10
-6.49,-7.49,3.12,5.39,5.39,5.39
-6.47,-7.23,3.18,7.00,7.00,7.00
-6.65,-7.12,3.19,7.49,7.49,7.49
-6.82,-7.11,3.24,8.12,8.12,8.19
-7.01,-7.16,3.28,8.47,8.47,8.75
-7.25,-7.13,3.12,10.36,10.57,10.57
-7.40,-6.82,3.17,12.25,12.32,12.32
-7.52,-6.59,3.16,12.74,12.74,12.67
-7.68,-6.44,3.13,12.04,12.04,12.11
-7.85,-6.43,3.13,11.41,11.41,11.41
-8.10,-6.59,3.10,11.41,11.62,11.62
-8.35,-6.76,3.09,13.79,14.49,14.49
-8.51,-6.67,3.12,17.36,17.78,17.78
-8.56,-5.85,3.19,19.04,18.69,18.48
-8.74,-5.69,3.23,17.64,17.64,17.36
-8.97,-5.70,3.26,17.22,17.22,17.43
-9.31,-5.66,3.35,18.76,18.76,18.76
-9.43,-5.50,3.44,20.86,20.86,21.21
-9.45,-5.20,3.52,23.03,23.03,23.17
-9.41,-4.92,3.57,23.59,23.59,23.59
-9.27,-4.63,3.60,23.24,23.31,23.31
-9.18,-4.48,3.67,23.59,23.59,23.66
-9.16,-4.40,3.76,24.43,24.43,24.71
-9.36,-4.41,3.82,27.09,27.09,27.09
-9.44,-4.17,3.83,29.68,30.31,30.31
-9.51,-3.38,3.85,31.08,31.08,30.94
-9.52,-2.99,3.79,30.03,30.03,30.03
-9.65,-2.68,3.67,30.10,30.17,30.17
-9.82,-2.27,3.65,30.31,30.31,30.31
-9.90,-2.13,3.65,30.17,30.17,30.17
-10.01,-1.93,3.59,30.24,30.24,30.24
-9.74,-1.45,3.49,30.03,30.03,30.03
-9.37,-0.77,3.48,28.07,27.30,27.30
-8.92,-0.41,3.41,25.48,25.48,25.27
-8.46,-0.22,3.37,25.55,25.55,25.55
-8.22,0.01,3.42,26.18,26.18,26.18
-8.02,0.00,3.36,28.14,28.98,28.98
-7.84,0.34,3.39,30.59,30.59,30.59
-7.73,1.12,3.42,28.98,28.07,28.07
-7.48,2.20,3.09,22.75,22.75,22.75
-7.56,2.37,3.15,21.00,21.00,21.00
-7.72,2.41,3.27,19.46,19.46,19.46
-7.73,2.56,3.22,20.16,20.16,20.16
-7.72,3.21,3.10,21.91,21.91,21.91
-7.77,3.82,3.08,20.30,19.88,19.88
-7.82,4.29,3.11,17.85,17.43,16.38
-8.11,4.18,3.32,13.65,13.58,13.58
-8.30,3.95,3.41,15.40,15.40,15.61
-8.39,4.21,3.48,17.15,17.15,17.15
-8.30,4.80,3.52,16.52,16.52,16.52
-8.06,5.23,3.39,15.61,15.61,15.61
-7.63,5.72,3.32,15.12,14.70,14.70
-7.22,6.06,3.37,12.74,12.74,12.60
-7.02,5.85,3.34,12.95,12.95,13.72
-5.73,6.49,3.05,21.14,20.30,20.30
-5.53,6.70,3.06,18.41,18.13,17.50
-5.23,6.58,3.09,16.45,16.31,16.24
-4.94,6.43,3.22,16.73,17.01,17.01
-4.65,6.67,3.27,17.22,17.08,17.08
-4.40,6.96,3.33,16.87,16.87,16.87
-4.24,7.20,3.41,16.31,16.31,16.10
-3.85,7.47,3.42,15.61,15.61,15.61
-3.62,7.51,3.39,16.03,16.03,16.03
-3.43,7.63,3.27,17.43,18.06,18.06
-2.70,8.29,2.97,16.80,16.80,16.80
-2.30,8.40,2.87,15.82,15.82,15.82
-2.10,8.40,2.85,15.96,15.96,15.96
-1.85,8.63,2.80,15.33,15.33,14.98
-1.38,8.74,2.88,11.27,11.20,11.20
-1.33,8.60,2.88,11.62,11.62,11.83
-1.17,8.80,2.92,12.60,12.60,12.74
-0.94,8.99,2.93,11.90,11.62,11.62
-0.65,8.93,2.83,11.06,11.13,11.13
-0.35,8.86,2.63,12.25,12.46,12.46
0.09,9.11,2.38,13.93,13.93,14.07
0.68,9.38,2.24,11.97,11.97,11.48
1.34,9.62,2.27,7.63,6.65,6.65
1.78,9.37,2.26,-1.40,-1.40,-2.10
1.86,8.98,2.36,-5.32,-5.32,-5.32
2.06,8.54,2.36,-5.46,-5.11,-5.11
2.36,8.16,2.46,-1.54,-1.54,-1.54
2.62,8.18,2.54,1.75,1.75,1.75
2.89,8.38,2.60,3.29,3.29,3.29
3.07,8.60,2.63,2.59,2.24,2.24
3.29,8.66,2.68,0.91,0.91,0.63
3.37,8.53,2.63,0.49,0.49,0.49
3.22,8.48,2.54,1.75,1.75,1.75
3.10,8.60,2.47,3.57,3.78,3.78
3.04,8.67,2.47,4.62,4.62,4.62
2.89,8.87,2.47,4.90,4.97,4.97
2.83,9.18,2.43,4.41,3.78,3.78
2.68,9.33,2.41,2.03,0.98,0.98
2.48,9.26,2.40,-0.35,-0.49,-0.77
2.25,9.13,2.43,-0.98,-0.91,-0.91
2.12,9.17,2.51,-0.98,-0.98,-1.12
2.10,9.17,2.55,-1.05,-1.05,-1.12
2.06,9.15,2.57,-1.40,-1.47,-1.47
2.01,9.09,2.59,-1.33,-1.33,-1.33
2.01,9.05,2.68,-1.12,-1.12,-1.19
2.00,9.08,2.77,-1.82,-1.82,-1.89
1.97,9.04,2.83,-2.24,-2.24,-2.38
2.03,9.02,2.79,-2.73,-2.73,-2.73
2.13,9.11,2.75,-3.29,-3.29,-3.29
2.16,8.94,2.69,-3.36,-3.22,-3.22
2.10,8.72,2.70,-0.84,-0.84,-0.42
2.08,8.75,2.68,0.84,1.40,1.40
2.13,9.00,2.58,-8.33,-8.33,-8.33
1.97,8.73,2.57,-9.94,-9.94,-9.94
1.45,8.79,2.54,-9.10,-9.10,-9.10
0.72,9.05,2.80,-9.45,-9.45,-9.38
0.33,8.94,2.84,-9.45,-9.31,-9.31
-0.39,9.12,2.96,-9.17,-9.52,-9.52
-0.49,9.23,3.00,-10.85,-10.85,-11.27
-0.69,9.01,3.03,-11.62,-11.62,-11.41
-1.00,8.78,3.06,-9.31,-9.31,-9.31
-1.44,8.83,3.12,-8.19,-8.19,-8.19
-1.62,8.97,3.12,-10.29,-10.29,-10.43
-1.70,8.92,3.03,-10.78,-10.78,-10.92
-1.72,9.05,3.08,-11.06,-11.06,-11.06
-1.83,9.07,3.17,-12.39,-12.95,-12.95
-2.23,8.50,3.51,-14.56,-14.56,-14.63
-2.43,8.51,3.62,-16.10,-16.73,-17.01
-2.54,8.32,3.72,-18.69,-18.69,-19.04
-2.73,7.46,3.79,-12.39,-12.39,-12.39
-2.99,7.48,3.87,-7.00,-7.00,-7.00
-3.21,7.69,3.98,-5.46,-5.46,-5.46
-3.23,7.94,3.87,-6.51,-6.93,-6.93
-3.20,8.20,3.58,-10.57,-11.06,-11.06
-3.43,8.09,3.54,-13.79,-13.93,-13.93
-3.82,7.48,3.51,-13.23,-13.23,-12.88
-4.15,7.28,3.47,-10.29,-10.29,-10.29
-4.17,7.51,3.36,-10.78,-10.78,-10.78
-4.41,7.42,3.33,-13.93,-14.70,-14.70
-4.88,6.80,3.43,-16.45,-16.45,-16.45
-5.25,6.09,3.51,-16.66,-16.66,-16.66
-5.51,5.93,3.47,-16.31,-16.31,-16.31
-5.42,6.28,3.43,-18.06,-19.11,-19.11
-5.48,6.36,3.55,-23.24,-23.24,-23.66
-5.58,6.08,3.59,-25.27,-25.27,-25.27
-5.91,5.85,3.80,-25.41,-25.41,-25.41
-6.18,5.93,3.98,-27.79,-27.79,-27.79
-6.40,5.79,4.01,-30.59,-30.59,-30.59
-6.51,5.37,4.01,-31.22,-31.22,-31.15
-6.70,5.02,4.06,-29.40,-29.40,-29.40
-6.83,4.91,4.18,-28.63,-28.63,-28.63
-7.07,4.69,4.27,-29.40,-29.68,-29.68
-7.28,4.18,4.40,-29.68,-29.68,-29.68
-7.55,3.79,4.44,-29.19,-29.19,-29.19
-7.70,3.23,4.57,-31.01,-31.01,-31.01
-7.80,3.00,4.49,-30.66,-30.66,-30.66
-7.77,2.98,4.49,-30.38,-30.38,-30.38
-7.91,2.74,4.66,-31.50,-31.50,-31.85
-8.37,2.13,4.88,-32.41,-32.48,-32.48
-8.53,1.76,4.92,-30.31,-30.31,-30.31
-8.58,1.79,4.96,-28.14,-28.14,-28.14
-8.68,1.85,5.08,-28.77,-28.77,-28.77
-8.69,1.75,5.02,-28.70,-28.35,-28.35
-8.74,1.52,4.99,-27.09,-26.60,-26.60
-9.03,0.98,5.13,-24.99,-24.15,-24.15
-9.08,0.66,5.18,-21.35,-20.44,-20.44
-9.04,0.78,5.13,-19.11,-19.25,-19.25
-9.07,0.67,5.19,-20.44,-20.44,-20.44
-9.07,0.25,5.08,-20.02,-20.02,-20.02
-8.97,0.12,5.03,-18.41,-18.20,-18.20
-8.83,0.15,4.94,-18.13,-18.06,-18.06
-8.57,-0.00,4.75,-18.20,-18.20,-18.20
-8.53,-0.37,4.74,-17.92,-17.92,-17.92
-8.68,-0.78,4.67,-17.01,-17.01,-17.01
-8.93,-1.29,4.61,-15.68,-15.40,-15.40
-9.04,-1.48,4.52,-12.81,-12.81,-12.74
-9.06,-1.47,4.50,-12.60,-12.88,-13.09
-9.24,-1.73,4.53,-14.21,-14.35,-14.35
-9.40,-2.07,4.46,-14.28,-14.28,-14.21
-9.35,-1.91,4.38,-14.21,-14.21,-14.35
-9.18,-1.82,4.34,-15.68,-15.68,-15.68
-9.15,-2.16,4.26,-15.89,-15.89,-15.89
-9.11,-2.35,4.12,-13.51,-13.09,-12.32
-8.94,-2.39,4.02,-10.64,-10.36,-9.94
-8.77,-2.41,4.03,-9.38,-9.38,-9.52
-8.80,-2.64,4.10,-10.99,-10.99,-10.99
-8.85,-3.06,4.03,-11.20,-11.20,-11.06
-8.80,-3.35,4.02,-10.78,-10.78,-10.78
-8.81,-3.36,3.99,-12.04,-12.04,-12.04
-8.78,-3.49,3.99,-13.30,-13.30,-13.30
-8.81,-3.64,3.99,-13.93,-13.93,-13.93
-8.73,-3.77,3.80,-12.46,-12.46,-12.18
-8.65,-3.89,3.77,-10.22,-10.22,-10.22
-8.60,-3.95,3.69,-8.19,-7.91,-7.91
-8.42,-4.06,3.60,-6.72,-6.65,-6.65
-8.29,-4.05,3.59,-6.58,-6.72,-6.72
-8.32,-4.33,3.56,-8.26,-8.26,-8.26
-8.31,-4.66,3.45,-8.40,-8.26,-8.26
-8.36,-4.81,3.42,-8.61,-8.82,-8.89
-8.44,-4.84,3.46,-10.01,-10.57,-10.57
-8.42,-4.73,3.44,-12.95,-13.23,-13.23
-8.43,-4.98,3.37,-13.93,-13.93,-13.72
-8.20,-5.32,3.32,-11.27,-11.27,-10.85
-8.04,-5.30,3.33,-7.14,-7.14,-7.14
-7.90,-5.27,3.27,-5.74,-5.53,-5.53
-7.68,-5.24,3.19,-5.46,-5.74,-5.74
-7.48,-5.02,3.06,-8.82,-8.82,-8.82
-7.39,-5.40,2.95,-13.65,-13.65,-13.65
-7.42,-5.96,2.93,-13.65,-13.65,-13.58
-7.35,-6.25,2.88,-11.83,-11.83,-11.83
-7.21,-6.22,2.89,-10.85,-10.85,-10.85
-7.25,-6.27,2.89,-10.92,-10.92,-10.92
-7.57,-6.47,2.99,-10.85,-10.85,-10.85
-7.74,-6.48,3.08,-11.69,-11.69,-11.69
-7.74,-6.46,3.12,-12.46,-12.46,-12.46
-7.71,-6.49,3.11,-11.34,-11.20,-11.20
-7.59,-6.49,3.13,-10.01,-9.24,-9.24
-7.49,-6.53,3.14,-7.91,-7.35,-7.35
-7.30,-6.49,3.13,-6.44,-6.23,-6.23
-7.11,-6.56,3.08,-6.44,-6.44,-6.44
-6.95,-6.69,2.96,-6.65,-6.72,-6.72
-6.93,-6.81,2.88,-6.30,-6.23,-6.02
-6.94,-7.10,2.77,-5.25,-5.04,-5.04
-6.97,-7.11,2.70,-4.20,-4.06,-4.06
-7.06,-7.01,2.72,-3.71,-3.64,-3.64
-7.07,-6.87,2.77,-3.64,-3.57,-3.57
-7.08,-6.84,2.86,-4.06,-4.06,-3.99
-7.08,-6.99,2.85,-3.50,-3.50,-3.36
-7.04,-7.16,2.81,-1.96,-1.26,-1.05
-6.88,-7.11,2.87,0.14,0.42,0.42
-6.72,-7.15,2.92,1.26,1.26,1.26
-6.54,-7.15,2.78,2.52,2.73,2.73
-6.39,-7.00,2.81,2.45,2.38,2.38
-6.35,-6.84,2.80,1.19,0.70,0.70
-6.30,-7.06,2.77,0.00,0.21,0.07
-6.36,-7.34,2.64,1.26,1.26,1.33
-6.53,-7.25,2.66,2.03,2.03,2.03
-6.63,-7.09,2.71,1.75,1.75,1.54
-6.81,-7.11,2.79,1.33,1.33,1.33
-7.05,-7.09,2.90,1.82,1.96,1.96
-7.36,-7.30,3.03,3.36,3.64,3.64
-7.63,-7.40,3.09,7.28,7.28,7.28
-7.83,-7.13,3.22,11.06,11.20,11.20
-8.09,-6.86,3.35,11.48,11.41,11.41
-8.35,-6.92,3.46,10.99,11.06,11.06
-9.13,-6.83,3.34,22.82,22.82,22.82
-9.27,-6.70,3.36,25.76,26.53,26.53
-9.34,-6.47,3.19,28.63,28.63,28.63
-9.38,-6.03,3.17,27.72,27.44,27.44
-9.51,-6.00,3.18,25.27,24.99,24.99
-9.54,-6.13,3.16,24.36,24.36,24.43
-9.70,-6.09,3.25,24.78,24.78,24.99
-9.72,-5.89,3.27,25.34,25.34,25.41
-9.67,-5.55,3.34,26.11,26.11,26.25
-9.56,-5.37,3.37,26.81,27.02,27.16
-9.54,-5.18,3.44,27.58,27.58,27.86
-9.47,-4.99,3.50,28.70,28.70,28.70
-9.37,-4.69,3.49,30.17,30.17,30.38
-9.18,-4.14,3.47,30.10,30.10,30.10
-9.04,-3.80,3.55,28.84,28.84,28.84
-8.89,-3.74,3.54,30.45,30.45,30.45
-8.71,-3.27,3.52,32.83,32.83,32.83
-8.56,-2.47,3.44,32.62,32.62,32.34
-8.33,-1.79,3.36,30.38,30.38,30.38
-8.00,-1.18,3.16,27.65,27.65,27.65
-7.85,-0.61,3.07,25.41,24.99,24.99
-7.78,-0.62,3.00,23.59,23.31,23.31
-8.03,-0.83,3.04,23.52,24.15,24.57
-8.30,-0.84,3.01,27.37,27.79,27.79
-8.38,-0.11,2.90,29.54,29.54,29.54
-8.04,1.12,2.82,26.11,26.11,25.27
-7.76,1.96,2.89,19.32,19.32,18.48
-7.89,1.78,3.04,11.76,11.76,11.76
-8.25,1.35,3.12,10.85,10.85,11.20
-8.44,1.24,3.23,15.33,15.33,15.33
-8.41,1.84,3.18,18.62,19.32,19.32
-8.08,2.98,3.07,19.39,19.39,18.62
-7.80,3.83,3.09,15.26,15.26,14.07
-7.59,4.02,3.19,10.29,10.29,9.24
-7.73,3.46,3.33,7.28,7.28,7.28
-8.17,3.03,3.58,9.24,9.73,9.73
-8.48,2.86,3.62,13.37,13.86,13.86
-8.40,3.46,3.50,18.76,18.76,18.83
-8.31,4.48,3.45,18.13,18.13,16.87
-8.09,5.10,3.30,14.28,14.28,12.60
-7.89,5.30,3.23,10.29,10.29,9.24
-8.00,4.92,3.34,8.96,8.96,8.96
-8.37,4.65,3.45,11.90,11.90,11.90
-8.58,4.93,3.60,13.16,13.16,13.37
-7.00,6.36,3.28,13.37,13.30,13.30
-6.43,6.61,3.24,9.66,9.66,9.66
-5.94,5.88,3.20,10.36,10.36,10.36
-5.62,5.94,3.20,14.42,14.42,14.98
-5.09,6.47,3.18,16.66,16.66,16.66
-4.64,7.08,3.11,15.54,15.19,15.19
-4.33,7.37,3.11,11.34,11.13,11.13
-4.05,7.28,3.20,10.01,10.01,10.01
-4.06,7.35,3.26,10.36,10.36,10.50
-4.06,7.44,3.34,10.71,10.71,10.71
-3.89,7.72,3.34,11.27,11.27,11.27
-2.96,8.29,3.06,11.76,11.76,11.69
-2.44,8.52,3.06,10.50,10.50,10.22
-2.16,8.59,2.99,8.61,8.61,8.47
-2.05,8.41,2.93,8.26,8.26,8.26
-1.91,8.40,3.03,8.96,8.96,9.10
-1.56,8.59,3.06,8.68,8.61,8.40
-1.09,8.61,2.99,8.19,8.19,8.12
-0.88,8.55,3.01,8.33,8.33,8.33
-0.58,8.50,2.95,9.73,9.73,9.94
-0.06,8.61,2.93,10.85,10.85,10.85
0.36,8.92,2.78,9.10,9.10,9.10
0.66,8.93,2.58,6.51,6.51,6.51
0.93,8.76,2.60,6.72,7.00,7.00
1.25,8.62,2.59,8.26,8.26,8.68
1.53,8.72,2.61,9.52,9.52,9.45
1.80,9.07,2.57,7.84,6.86,6.86
2.08,9.31,2.59,3.22,3.22,2.10
2.26,9.02,2.56,-0.42,-0.56,-0.56
2.25,8.71,2.57,0.70,0.70,0.91
2.20,8.69,2.61,2.31,2.73,3.01
2.23,8.82,2.62,3.92,3.92,3.92
1.64,8.96,2.81,0.28,0.35,0.35
1.49,9.07,2.71,0.56,0.42,0.42
1.24,9.15,2.68,0.21,0.14,0.14
1.18,9.13,2.68,0.35,0.35,0.56
1.11,9.15,2.63,1.26,1.26,1.40
1.04,9.24,2.60,1.05,1.05,0.91
1.07,9.41,2.64,-0.35,-0.35,-0.91
1.04,9.44,2.66,-3.85,-3.85,-3.85
1.00,9.32,2.66,-5.18,-5.67,-5.67
0.97,9.27,2.69,-6.23,-6.37,-6.37
0.88,9.20,2.72,-6.23,-6.23,-6.16
0.76,9.16,2.79,-6.23,-6.23,-6.23
0.67,9.26,2.99,-7.70,-7.77,-7.77
0.56,9.11,3.03,-8.26,-8.19,-8.19
0.53,8.95,2.96,-6.79,-6.79,-6.51
0.51,8.93,2.98,-5.60,-5.60,-5.60
0.53,9.04,2.98,-4.97,-5.04,-5.04
0.62,9.18,2.87,-5.11,-5.11,-5.11
0.64,9.16,2.89,-6.23,-6.23,-6.44
0.58,9.06,2.83,-5.88,-5.88,-5.88
0.43,8.85,2.87,-4.55,-4.27,-4.27
0.19,8.71,2.87,-3.22,-3.22,-2.87
0.03,8.74,2.83,-2.66,-2.66,-2.66
-0.01,8.92,2.73,-4.41,-4.41,-4.41
-0.11,8.87,2.67,-7.35,-7.77,-7.77
-0.41,8.64,2.72,-9.59,-9.59,-10.22
-1.27,8.27,3.01,-12.25,-12.32,-12.32
-1.77,8.02,3.12,-13.93,-13.93,-13.93
-2.09,8.14,3.20,-14.98,-15.33,-15.61
-2.34,8.09,3.15,-15.82,-15.82,-15.68
-2.79,7.93,3.18,-14.42,-14.42,-14.21
-3.13,7.87,3.20,-11.76,-11.76,-11.76
-3.45,7.94,3.25,-10.29,-10.29,-10.29
-3.59,8.18,3.31,-11.06,-11.06,-11.06
-3.85,8.30,3.30,-13.93,-15.12,-15.12
-4.12,8.14,3.29,-17.78,-18.48,-18.48
-4.54,7.86,3.35,-20.44,-20.44,-20.58
-4.79,7.70,3.44,-21.28,-21.28,-21.28
-5.00,7.37,3.53,-20.51,-20.51,-19.81
-5.29,7.14,3.67,-16.52,-16.52,-16.52
-5.52,7.39,3.78,-14.63,-14.56,-14.56
-5.51,7.62,3.86,-15.12,-15.12,-15.12
-5.48,7.39,3.96,-16.17,-16.17,-16.38
-5.67,7.13,4.02,-16.17,-16.03,-16.03
-6.08,7.01,4.13,-16.10,-16.10,-16.10
-6.24,6.83,4.08,-15.75,-15.75,-15.61
-6.28,6.79,4.09,-13.93,-13.93,-13.72
-6.16,6.86,4.04,-12.60,-12.60,-12.60
-6.03,6.82,3.94,-11.34,-11.34,-11.34
-6.01,6.69,3.91,-10.78,-10.78,-10.78
-6.13,6.54,3.94,-9.59,-9.59,-9.52
-6.14,6.38,3.94,-8.54,-8.54,-8.54
-6.06,6.30,3.86,-7.42,-7.42,-7.42
-5.98,6.26,3.80,-7.21,-7.21,-7.21
-6.00,6.11,3.82,-7.91,-7.91,-7.91
-6.08,5.94,3.90,-8.89,-8.89,-8.89
-6.36,5.48,3.94,-8.61,-8.61,-8.61
-6.58,5.25,3.90,-7.42,-7.42,-7.42
-6.66,5.36,3.85,-8.33,-8.33,-8.33
-6.72,5.32,3.82,-9.52,-9.52,-9.52
-6.85,5.26,3.75,-10.64,-10.71,-10.71
-6.95,5.11,3.68,-11.41,-11.41,-11.41
-6.93,4.83,3.71,-11.83,-12.04,-12.04
-6.95,4.66,3.75,-12.81,-12.81,-12.95
-7.04,4.50,3.79,-13.58,-13.58,-13.58
-7.13,4.40,3.75,-14.49,-14.63,-14.63
-7.14,4.45,3.77,-16.66,-17.15,-17.15
-7.18,4.13,3.81,-19.18,-19.46,-20.02
-7.53,3.34,4.05,-20.86,-20.86,-20.86
-7.81,3.02,4.07,-19.32,-19.32,-19.32
-7.80,2.87,4.09,-18.27,-17.99,-17.99
-7.74,2.89,4.04,-17.85,-35.77,-17.99
-7.82,2.85,3.96,-19.04,-19.04,-19.04
-8.01,2.62,3.94,-19.32,-19.46,-19.46
-8.08,2.33,4.02,-19.74,-19.74,-19.81
-8.17,1.85,4.08,-19.95,-19.95,-19.95
-8.17,1.57,4.08,-19.25,-19.11,-19.11
-8.33,1.46,4.07,-19.18,-19.39,-19.39
-8.48,1.23,4.11,-20.30,-20.30,-20.30
-8.76,0.61,4.27,-20.79,-20.79,-20.79
-8.99,0.13,4.25,-19.32,-19.32,-19.32
-9.16,0.01,4.17,-17.99,-17.92,-17.92
-9.26,-0.10,4.14,-17.99,-17.99,-17.99
-9.17,-0.11,4.02,-18.62,-18.62,-18.69
-9.12,-0.37,4.00,-20.23,-20.23,-20.23
-9.05,-0.73,3.97,-20.72,-20.51,-20.51
-8.68,-1.14,3.97,-20.09,-20.09,-20.09
-8.48,-1.42,3.95,-20.02,-20.02,-20.37
-8.40,-1.88,4.02,-21.14,-21.14,-21.28
-8.43,-2.60,4.01,-21.07,-21.07,-21.07
-8.34,-2.77,3.99,-21.14,-21.14,-21.14
-8.24,-2.92,3.91,-22.47,-22.47,-22.47
-8.29,-3.43,3.82,-22.61,-22.61,-22.61
-8.46,-3.82,3.84,-20.79,-20.79,-20.79
-8.58,-4.11,3.74,-18.90,-18.90,-18.90
-8.67,-4.14,3.68,-18.76,-18.76,-18.76
-8.89,-4.29,3.63,-20.02,-20.23,-20.23
-9.01,-4.74,3.50,-19.88,-19.88,-19.60
-9.25,-4.96,3.37,-17.50,-17.50,-17.50
-9.38,-4.86,3.27,-16.87,-16.87,-16.87
-9.65,-5.02,3.33,-18.13,-18.13,-18.13
-9.70,-5.25,3.35,-18.48,-18.48,-18.48
-9.56,-5.58,3.29,-17.08,-16.80,-16.80
-9.27,-5.73,3.32,-15.47,-14.84,-14.84
-8.92,-5.86,3.41,-14.21,-13.86,-13.86
-8.57,-5.92,3.37,-12.53,-12.53,-12.53
-8.16,-5.85,3.40,-12.88,-12.88,-12.88
-7.72,-5.82,3.40,-14.14,-14.14,-14.14
-7.52,-6.07,3.39,-15.26,-15.26,-15.26
-7.38,-6.41,3.31,-14.00,-12.88,-12.88
-7.37,-6.54,3.24,-10.78,-9.80,-9.80
-7.51,-6.57,3.25,-8.40,-7.84,-7.84
-7.55,-6.62,3.18,-6.79,-6.44,-6.30
-7.51,-6.63,3.15,-5.81,-5.88,-5.88
-7.46,-6.55,3.10,-6.72,-6.72,-6.72
-7.47,-6.59,3.08,-8.33,-8.40,-8.40
-7.37,-6.87,3.01,-8.19,-7.84,-7.84
-7.26,-6.98,2.87,-6.58,-6.30,-6.30
-7.09,-6.86,2.82,-5.88,-5.95,-5.95
-6.91,-6.78,2.79,-6.23,-6.30,-6.30
-6.59,-7.23,2.77,-5.88,-5.88,-5.81
-6.41,-7.23,2.79,-5.53,-5.60,-5.60
-6.28,-7.20,2.81,-6.02,-6.16,-6.30
-6.13,-7.16,2.89,-8.96,-9.31,-9.31
-6.04,-7.38,2.90,-8.82,-8.82,-8.82
-6.14,-7.61,2.92,-5.32,-5.32,-5.32
-6.17,-7.61,2.93,-3.64,-3.29,-3.29
-6.25,-7.42,2.98,-3.15,-3.15,-3.15
-6.25,-7.37,3.00,-3.99,-3.99,-3.99
-6.14,-7.41,2.95,-4.48,-4.48,-4.48
-6.07,-7.38,2.94,-4.48,-4.48,-4.48
-6.13,-7.47,2.93,-4.06,-4.06,-4.06
-6.27,-7.68,2.96,-3.01,-3.01,-3.01
-6.43,-7.89,3.05,-1.40,-1.40,-1.40
-6.48,-7.85,3.12,-0.07,-0.07,-0.07
-6.56,-7.59,3.18,0.56,0.56,0.56
-6.65,-7.62,3.27,1.40,1.75,1.75
-6.65,-7.68,3.25,4.13,4.62,4.62
-6.64,-7.52,3.24,7.77,7.77,8.05
-6.67,-7.36,3.18,8.89,8.89,8.96
-6.69,-7.25,3.13,8.96,8.96,8.96
-6.71,-7.23,3.07,8.12,8.12,8.12
-6.91,-7.34,2.99,7.91,8.05,8.05
-7.12,-7.61,2.98,10.01,10.01,10.43
-7.41,-7.60,2.95,12.18,12.18,12.18
-7.53,-7.24,2.97,13.72,13.58,13.58
-7.68,-6.81,3.05,12.53,12.39,12.39
-7.73,-6.48,3.01,11.20,11.20,11.20
-7.88,-6.47,2.96,10.36,10.36,10.50
-7.96,-6.61,2.89,11.27,11.27,12.18
-7.97,-6.72,2.77,14.77,14.77,15.05
-7.98,-6.49,2.73,15.75,15.75,15.75
-8.11,-6.40,2.78,15.05,15.05,14.84
-8.31,-6.30,2.83,14.98,14.98,14.98
-8.36,-6.09,2.97,15.54,15.61,15.61
-8.93,-5.64,3.27,15.89,16.31,16.73
-9.04,-5.30,3.40,17.85,18.06,18.27
-9.16,-4.90,3.45,18.76,18.76,18.83
-9.26,-4.35,3.52,18.13,18.13,18.13
-9.31,-3.98,3.52,16.52,16.52,16.52
-9.36,-3.96,3.50,17.57,17.57,17.57
-9.44,-4.23,3.46,22.68,22.68,22.68
-9.50,-4.08,3.45,30.66,31.36,31.36
-9.35,-3.29,3.44,33.25,33.25,33.04
-9.26,-2.45,3.46,30.66,30.03,30.03
-9.27,-2.25,3.46,25.69,25.69,25.34
-9.32,-2.34,3.41,23.94,23.94,23.94
-9.54,-2.42,3.40,25.13,25.13,25.41
-9.64,-2.13,3.44,28.56,28.56,28.56
-9.66,-1.47,3.43,29.61,29.61,29.61
-9.63,-0.63,3.47,28.70,28.70,28.28
-9.57,-0.25,3.45,25.48,25.48,25.48
-9.40,0.00,3.34,23.10,23.10,23.10
-9.15,0.13,3.25,23.80,23.80,23.80
-8.99,0.25,3.33,25.27,25.27,25.27
-8.94,0.47,3.35,28.70,28.70,28.70
-8.10,2.23,3.19,24.08,24.08,23.52
-7.99,2.10,3.13,23.17,23.31,23.31
-7.87,2.41,3.13,25.13,25.13,25.27
-7.84,3.05,3.16,23.66,23.66,23.66
-7.91,3.40,3.17,20.79,20.79,20.79
-7.76,3.74,3.04,20.09,20.09,20.09
-7.69,4.26,3.15,19.74,19.53,19.53
-7.83,4.69,3.31,16.87,15.12,15.12
-8.07,4.48,3.45,13.65,13.86,13.86
-7.98,4.54,3.35,17.15,17.43,17.43
-7.41,5.37,3.32,17.78,17.36,17.36
-6.74,6.23,3.24,14.14,14.14,14.14
-6.34,6.05,3.13,11.69,11.76,11.76
-6.12,5.74,3.14,13.16,14.49,14.49
-6.01,5.83,3.28,16.03,16.59,16.59
-6.04,6.17,3.37,16.52,16.52,16.52
-5.80,6.59,3.22,15.05,15.05,14.70
-5.26,6.92,3.00,12.67,12.67,12.46
-4.71,7.09,2.95,11.48,11.20,11.13
-4.25,7.21,2.90,10.71,10.71,10.01
-4.01,7.43,3.04,7.28,7.28,6.72
-4.01,7.35,3.01,4.34,4.34,4.20
-3.61,7.45,2.99,6.51,6.51,6.51
-3.24,7.78,2.96,7.70,7.70,7.70
-3.02,8.02,3.05,7.70,7.70,7.70
-2.80,8.21,3.12,7.84,7.84,7.77
-2.48,8.61,3.26,6.23,6.23,6.23
-1.83,8.63,3.33,-2.45,-2.45,-2.45
-1.67,8.19,3.34,-2.10,-2.10,-2.10
-1.44,8.06,3.29,2.03,2.03,2.03
-1.00,8.17,3.26,4.97,4.97,4.97
-0.59,8.51,3.35,8.19,8.19,8.19
-0.33,8.64,3.36,9.17,9.17,9.17
0.04,8.81,3.39,9.17,9.17,8.96
0.37,8.85,3.35,8.68,8.68,8.68
0.51,8.73,3.13,9.31,9.45,9.45
0.78,8.82,3.08,9.17,9.03,9.03
1.33,8.81,2.92,8.82,9.10,9.10
1.68,8.56,2.72,9.52,9.73,10.01
2.06,8.60,2.55,10.36,10.15,10.15
2.35,8.75,2.50,7.49,7.00,7.00
2.68,8.84,2.52,4.27,2.73,2.73
2.78,8.78,2.54,0.49,0.14,0.14
2.75,8.50,2.68,-1.19,-1.26,-1.26
2.68,8.60,2.82,-2.17,-2.24,-2.24
2.54,8.62,2.86,-2.80,-2.80,-3.01
2.39,8.63,2.94,-2.87,-2.87,-2.94
2.22,8.53,3.00,-0.07,-0.07,-0.07
2.04,8.58,3.02,2.66,3.29,3.29
1.83,8.96,3.04,4.27,4.27,3.99
1.69,9.38,3.09,2.17,2.17,2.17
1.56,9.26,3.03,-0.49,-0.49,-0.49
1.42,8.92,2.92,0.49,0.49,0.49
1.31,8.96,2.91,3.01,3.01,3.01
1.28,9.36,2.90,1.12,1.12,1.12
1.18,9.45,2.89,-3.36,-3.36,-3.36
0.96,8.97,2.88,-3.57,-3.64,-3.64
0.85,9.40,3.09,-5.95,-5.95,-5.95
0.73,9.37,3.14,-8.33,-8.40,-8.40
0.60,8.89,3.09,-6.23,-6.23,-6.23
0.63,8.97,3.20,-5.95,-5.95,-5.95
0.55,9.08,3.41,-7.70,-7.84,-7.84
0.46,8.94,3.40,-8.82,-8.89,-8.89
0.43,8.83,3.35,-8.19,-8.19,-7.98
0.46,8.81,3.18,-6.23,-6.23,-6.02
0.39,8.90,3.16,-5.46,-5.46,-5.60
0.23,9.01,3.24,-6.44,-6.93,-7.14
-0.07,8.97,3.18,-8.33,-8.33,-8.33
-0.24,8.85,3.15,-10.22,-10.29,-10.29
-0.51,8.59,3.16,-10.64,-10.50,-10.50
-0.80,8.45,3.13,-10.36,-10.36,-10.29
-1.02,8.44,3.07,-10.22,-10.29,-10.29
-1.19,8.48,3.13,-11.27,-11.27,-11.41
-1.46,8.50,3.17,-12.60,-12.60,-12.74
-1.87,8.44,3.34,-14.00,-14.42,-14.56
-2.27,8.13,3.39,-14.77,-14.77,-14.77
-2.56,8.09,3.29,-14.49,-14.49,-14.49
-2.67,8.33,3.32,-16.17,-16.66,-16.66
-2.99,8.12,3.51,-19.74,-19.74,-19.95
-3.55,7.69,3.66,-20.37,-20.23,-20.23
-3.99,7.60,3.81,-20.65,-20.65,-20.79
-4.01,7.74,3.89,-22.33,-22.33,-22.33
-4.02,7.63,3.90,-22.26,-22.19,-22.19
-4.19,7.51,4.04,-21.00,-21.00,-20.93
-4.27,7.61,4.22,-21.28,-21.49,-21.49
-4.44,7.43,4.28,-21.98,-21.98,-21.98
-4.89,6.90,4.32,-15.96,-15.96,-15.96
-5.17,6.84,4.35,-13.93,-13.72,-13.72
-5.36,6.74,4.39,-12.53,-11.97,-11.97
-5.71,6.47,4.52,-10.36,-10.36,-10.36
-6.05,6.43,4.49,-8.47,-8.47,-8.47
-6.14,6.55,4.38,-8.54,-8.54,-8.54
-6.21,6.56,4.30,-9.10,-9.10,-9.10
-6.32,6.37,4.20,-9.17,-9.10,-9.10
-6.36,6.06,4.18,-8.19,-7.98,-7.70
-6.42,5.97,4.22,-7.56,-7.56,-7.63
-6.70,5.78,4.32,-9.45,-9.45,-9.45
-6.78,5.55,4.31,-10.22,-10.43,-10.43
-6.75,5.47,4.26,-11.83,-11.83,-11.83
-6.66,5.33,4.23,-12.95,-12.95,-12.95
-6.61,5.17,4.21,-13.23,-13.16,-13.16
-6.60,4.91,4.24,-12.88,-12.88,-12.88
-6.57,4.75,4.23,-11.76,-11.69,-11.69
-6.66,4.76,4.22,-12.04,-12.25,-12.25
-6.78,4.66,4.15,-14.21,-14.21,-14.35
-6.89,4.35,4.06,-14.70,-14.70,-14.63
-6.98,4.24,4.08,-15.54,-15.54,-15.54