aX,aY,aZ,gX,gY,gZ
-10.93,5.26,-1.01,-56.70,-56.70,-59.43
-10.10,4.22,-0.67,-64.96,-64.96,-64.96
-8.98,2.18,0.04,-59.50,-57.68,-57.68
-8.33,0.81,0.47,-38.43,-34.79,-34.79
-8.26,0.47,0.51,-7.00,-2.94,-2.94
-8.08,1.07,0.35,20.37,24.01,24.01
-7.77,1.65,0.21,52.50,52.50,55.44
-7.54,1.85,0.28,69.44,74.48,77.07
-7.70,2.52,0.36,87.78,87.78,92.26
-7.74,3.80,-0.02,96.81,96.81,96.81
-8.05,5.01,-0.18,92.40,92.40,91.14
-8.34,6.76,-0.39,76.72,76.72,73.78
-8.34,8.48,-0.59,49.07,49.07,49.07
-7.92,9.18,-0.70,6.51,6.51,6.51
-7.63,8.71,-0.84,-17.15,-23.73,-23.73
-7.69,7.57,-0.78,-39.97,-39.97,-43.89
-7.89,6.02,-0.67,-52.22,-52.64,-52.64
-7.93,5.03,-0.60,-52.85,-52.85,-52.29
-8.36,4.70,-0.60,-49.07,-47.67,-46.97
-8.47,4.62,-0.72,-43.12,-43.12,-40.25
-8.83,4.41,-0.98,-33.74,-33.74,-28.42
-9.17,4.25,-0.95,-17.36,-17.36,-9.31
-8.86,3.95,-0.96,11.83,11.83,11.83
-8.17,3.69,-1.25,37.03,40.11,40.11
-7.83,4.89,-1.69,67.41,67.41,67.41
-7.76,6.19,-2.23,88.90,88.90,88.90
-6.59,8.14,-2.75,64.82,64.82,64.82
-5.82,8.94,-2.75,29.89,29.89,29.89
-5.72,8.96,-2.55,10.99,3.15,3.15
-5.69,8.48,-2.46,-13.02,-13.02,-13.02
-5.95,8.46,-2.42,-29.33,-29.33,-31.29
-6.25,8.70,-2.48,-44.87,-44.87,-44.87
-6.43,8.57,-2.40,-58.87,-58.87,-58.87
-6.51,7.94,-2.39,-68.81,-68.81,-70.56
-6.59,7.12,-2.23,-77.77,-77.77,-77.77
-6.78,7.01,-2.30,-79.17,-78.89,-78.89
-6.83,6.99,-2.35,-75.46,-74.76,-74.76
-6.83,6.81,-1.65,-65.45,-65.45,-64.05
-6.91,5.93,-0.87,-56.63,-52.99,-50.75
-6.81,4.10,0.15,-32.76,-32.76,-32.76
-6.75,3.30,-0.34,13.23,13.23,13.23
-6.53,3.82,-0.96,42.00,50.54,50.54
-6.37,4.49,-1.29,72.03,72.03,72.03
-6.41,5.22,-1.24,92.96,92.96,92.96
-6.32,5.64,-1.40,95.76,95.76,95.76
-6.53,6.36,-1.64,87.92,87.92,87.92
-6.86,7.40,-1.93,75.60,70.49,70.49
-7.08,8.49,-2.33,52.36,52.36,45.85
-7.42,9.02,-2.49,19.95,19.95,19.95
-7.44,8.38,-2.30,-5.46,-7.84,-7.84
-7.62,7.54,-2.12,-21.28,-22.54,-22.54
-7.86,6.57,-2.09,-29.82,-30.52,-30.52
-8.09,5.97,-2.05,-33.11,-33.11,-33.11
-8.26,5.66,-2.06,-31.92,-31.92,-31.50
-8.39,5.35,-2.05,-27.16,-27.16,-26.32
-8.44,5.23,-2.04,-20.02,-20.02,-18.97
-8.31,5.12,-2.00,-12.60,-12.60,-11.41
-7.94,5.08,-2.01,-1.82,-0.56,-0.56
-7.74,5.36,-2.04,9.45,9.45,10.64
-7.45,5.61,-2.07,15.61,17.57,18.41
-7.29,6.15,-2.08,23.59,23.59,24.01
-7.11,6.62,-2.15,25.13,25.13,24.85
-6.89,6.89,-2.30,22.75,21.35,20.72
-6.74,6.71,-2.36,16.45,16.45,15.54
-6.75,6.35,-2.33,6.93,6.93,5.88
-6.66,6.03,-2.37,-0.49,-0.49,-1.33
-6.58,5.78,-2.45,-5.32,-6.93,-6.93
-6.55,5.47,-2.48,-10.99,-10.99,-12.18
-6.62,5.19,-2.52,-15.05,-15.05,-15.68
-6.79,4.96,-2.46,-17.01,-17.01,-17.01
-7.00,5.06,-2.39,-17.01,-16.87,-16.87
-7.18,5.33,-2.32,-16.17,-16.17,-15.89
-7.52,5.36,-2.34,-13.30,-13.30,-13.30
-7.87,5.20,-2.34,-9.45,-9.45,-9.45
-8.25,5.07,-2.33,-5.67,-5.67,-5.67
-8.35,5.20,-2.22,-1.89,-1.89,-1.89
-8.39,5.28,-2.19,1.05,1.05,1.05
-8.38,5.25,-2.22,2.24,2.24,2.52
-8.39,5.36,-2.18,4.62,4.62,4.62
-8.42,5.68,-2.16,5.53,5.53,5.53
-8.27,6.11,-2.17,3.92,3.92,2.94
-7.96,6.37,-2.15,-3.36,-3.36,-3.36
-7.70,6.46,-2.20,-12.18,-13.02,-13.02
-7.37,6.21,-2.23,-17.43,-18.20,-18.20
-7.02,5.84,-2.17,-22.68,-23.24,-23.24
-6.91,5.36,-1.90,-24.57,-24.29,-24.29
-7.11,5.28,-1.79,-21.70,-21.70,-21.70
-7.48,5.53,-1.77,-18.20,-17.50,-17.50
-7.80,5.87,-1.74,-13.72,-13.37,-12.46
-7.96,5.82,-1.65,-9.94,-9.94,-9.94
-7.84,5.49,-1.47,-7.42,-7.07,-7.07
-7.78,5.27,-1.39,-5.60,-5.39,-5.39
-7.83,5.25,-1.42,-4.06,-4.06,-3.92
-7.87,5.38,-1.39,-3.85,-3.92,-4.13
-7.96,5.73,-1.31,-5.11,-5.11,-5.95
-8.11,6.20,-1.25,-7.91,-7.91,-8.89
-8.37,6.28,-1.17,-10.50,-10.50,-10.64
-8.52,6.17,-1.12,-12.74,-12.74,-12.95
-8.46,6.11,-1.09,-13.51,-13.72,-13.72
-8.27,5.92,-0.95,-13.16,-13.16,-12.95
-8.15,5.78,-0.80,-11.06,-11.06,-10.71
-8.02,5.61,-0.76,-8.89,-8.89,-7.77
-7.93,5.57,-0.71,-5.74,-5.74,-5.74
-7.87,5.53,-0.65,-2.17,-2.17,-2.17
-7.86,5.50,-0.61,0.14,0.14,0.98
-7.81,5.54,-0.54,2.94,2.94,2.94
-7.82,5.73,-0.52,5.25,5.25,5.25
-7.79,5.84,-0.52,5.81,5.95,5.95
-7.64,5.89,-0.61,5.32,5.32,5.32
-7.60,5.97,-0.64,4.06,4.06,3.78
-7.58,5.90,-0.60,3.15,3.01,3.01
-7.57,5.72,-0.62,2.24,2.24,2.10
-7.48,5.82,-0.62,1.19,1.19,0.91
-7.42,5.89,-0.66,0.14,0.14,0.14
-7.49,5.86,-0.68,0.28,0.28,0.28
-7.64,5.87,-0.65,1.19,1.26,1.26
-7.67,5.91,-0.69,2.52,2.73,2.73
-7.71,5.98,-0.75,3.01,3.08,3.08
-7.72,5.94,-0.89,3.01,2.94,3.01
-7.74,5.76,-0.94,3.22,3.36,3.50
-7.76,5.55,-1.00,3.99,4.20,4.20
-7.76,5.39,-1.08,4.76,4.76,4.76
-7.87,5.39,-1.20,4.76,4.69,4.69
-7.94,5.47,-1.32,4.48,4.20,4.20
-8.01,5.67,-1.42,3.57,3.36,3.01
-8.04,5.79,-1.45,1.61,1.40,0.70
-8.04,5.85,-1.50,-0.77,-0.77,-1.54
-8.01,5.76,-1.55,-2.80,-2.80,-2.94
-8.00,5.56,-1.49,-3.57,-3.57,-3.43
-7.81,5.32,-1.43,-2.45,-2.45,-2.17
-7.76,5.30,-1.40,-0.84,-0.28,-0.07
-7.73,5.37,-1.39,1.12,1.68,1.75
-7.62,5.47,-1.40,2.80,2.80,2.80
-7.59,5.51,-1.37,3.71,3.78,3.78
-7.55,5.57,-1.29,4.48,4.62,4.90
-7.46,5.52,-1.20,6.02,6.02,6.23
-7.42,5.64,-1.14,7.21,7.21,7.35
-7.59,5.95,-1.16,6.51,6.51,6.37
-7.70,6.23,-1.22,3.64,3.64,3.64
-7.66,6.17,-1.29,-0.35,-0.84,-0.84
-7.55,6.14,-1.24,-3.99,-4.27,-4.27
-7.59,6.06,-1.15,-7.21,-7.21,-7.35
-7.57,5.90,-1.12,-7.91,-7.91,-7.98
-7.61,5.78,-1.11,-7.70,-7.70,-7.56
-7.57,5.83,-1.15,-7.07,-7.07,-6.65
-7.48,5.85,-1.16,-5.81,-5.81,-5.11
-7.54,5.90,-1.07,-3.50,-3.50,-3.50
-7.58,5.88,-1.09,-1.61,-1.61,-1.61
-7.66,5.85,-1.12,0.28,0.28,0.28
-7.74,5.82,-1.23,2.80,2.80,2.80
-7.74,5.86,-1.25,4.41,4.41,4.41
-7.74,5.96,-1.29,5.32,5.32,5.32
-7.72,6.10,-1.31,4.97,4.69,4.48
-7.74,6.25,-1.37,3.29,3.29,2.45
-7.85,6.26,-1.39,0.70,0.56,0.56
-7.86,6.22,-1.36,-1.54,-1.54,-1.54
-7.77,6.22,-1.34,-2.52,-2.80,-2.80
-7.57,6.28,-1.34,-3.92,-3.99,-3.99
-7.40,6.25,-1.34,-4.62,-4.48,-4.48
-7.35,6.12,-1.25,-3.36,-3.36,-3.22
-7.34,5.97,-1.21,-1.54,-1.54,-1.19
-7.32,5.98,-1.12,1.82,1.82,1.82
-7.27,6.17,-1.17,3.36,3.36,3.36
-7.18,6.29,-1.24,4.55,4.55,4.55
-7.19,6.35,-1.27,5.32,5.32,5.32
-7.36,6.39,-1.24,5.67,5.67,5.67
-7.47,6.48,-1.28,5.25,5.25,5.25
-7.61,6.61,-1.31,3.22,3.22,3.22
-7.88,6.59,-1.38,1.89,1.75,1.75
-8.01,6.51,-1.44,0.91,0.91,0.91
-8.06,6.44,-1.45,0.35,0.28,0.28
-8.24,6.50,-1.47,0.00,0.00,0.00
-8.48,6.42,-1.50,-0.14,-0.14,-0.14
-8.77,6.38,-1.56,0.28,0.21,0.21
-9.07,6.36,-1.51,0.42,0.42,0.28
-9.28,6.28,-1.48,0.14,0.14,0.14
-9.22,6.03,-1.48,-0.70,-0.70,-0.77
-9.02,5.86,-1.46,-1.54,-1.54,-1.68
-8.91,5.58,-1.42,-2.03,-2.03,-1.89
-9.10,5.56,-1.29,-1.68,-1.68,-1.68
-9.37,5.64,-1.20,-0.63,-0.63,-0.42
-9.52,5.70,-1.10,-0.07,-0.07,-0.14
-9.53,5.79,-1.01,-0.63,-0.63,-0.70
-9.78,5.81,-0.98,-1.47,-1.47,-1.47
-10.07,5.53,-0.91,-1.75,-1.75,-1.54
-10.25,5.04,-0.87,-1.05,-1.05,-0.91
-10.55,4.85,-0.84,0.00,0.00,0.21
-11.19,4.90,-0.86,2.52,2.52,2.73
-11.67,4.96,-0.92,3.92,3.92,3.85
-12.20,5.10,-0.99,2.87,2.17,2.17
-12.63,5.21,-1.04,-0.49,-1.47,-1.47
-12.56,4.89,-1.02,-3.64,-3.64,-4.20
-12.40,4.17,-0.93,-4.69,-4.69,-4.69
-12.21,3.43,-0.82,-5.88,-5.88,-5.88
-11.95,3.10,-0.78,-8.96,-8.96,-8.96
-11.65,2.81,-0.75,-12.95,-12.95,-12.95
-11.03,2.23,-0.57,-16.94,-16.94,-16.94
-10.60,1.47,-0.49,-19.74,-19.74,-19.74
-10.05,0.79,-0.41,-22.54,-22.54,-22.54
-9.21,0.21,-0.29,-26.25,-26.25,-26.67
-8.42,-0.62,-0.15,-28.84,-29.12,-29.12
-8.48,-1.31,0.09,-28.91,-28.91,-28.63
-8.40,-2.08,0.12,-27.09,-27.09,-26.95
-7.77,-2.09,-0.07,-27.02,-27.02,-27.02
-7.30,-2.73,-0.20,-27.44,-27.44,-27.79
-6.64,-3.73,-0.33,-31.85,-31.85,-31.85
-5.03,-5.12,-0.87,-40.32,-40.32,-40.67
-4.17,-7.62,-1.16,-28.63,-28.63,-28.63
-3.55,-7.48,-1.32,-21.14,-20.72,-20.72
-0.77,-7.48,-1.44,-20.65,-20.65,-20.65
0.43,-8.42,-1.40,-15.19,-15.19,-15.19
1.15,-8.50,-1.34,-6.51,-6.51,-6.51
1.41,-8.12,-1.59,-2.38,-2.38,-2.38
1.64,-7.85,-1.88,-2.66,-2.66,-2.66
1.89,-7.44,-2.06,-5.67,-5.67,-5.67
2.46,-7.13,-2.16,-11.69,-12.32,-12.32
3.41,-6.97,-2.28,-15.75,-17.50,-17.50
4.37,-7.10,-2.53,-19.81,-19.81,-19.81
4.94,-7.39,-2.57,-17.99,-17.99,-17.99
5.33,-7.43,-2.70,-12.53,-11.83,-11.83
5.70,-7.03,-2.70,-9.03,-8.05,-8.05
5.93,-6.70,-2.71,-7.35,-7.42,-7.42
6.03,-6.74,-2.52,-5.53,-5.18,-5.18
5.97,-6.71,-2.46,-2.31,-1.89,-1.89
4.17,-7.01,-2.13,0.07,0.07,0.07
4.09,-7.56,-2.18,1.05,1.26,2.24
4.24,-8.00,-2.01,5.53,6.37,6.37
4.42,-8.15,-1.90,14.28,15.12,15.12
4.34,-8.22,-2.05,19.18,21.56,21.56
3.87,-8.34,-2.27,25.97,26.67,26.67
3.83,-8.27,-2.42,30.80,30.80,31.15
3.99,-8.02,-2.43,31.99,32.13,32.20
3.80,-8.08,-2.43,32.76,32.76,33.11
3.20,-8.02,-2.31,33.39,33.39,33.39
2.94,-7.60,-2.19,29.54,29.54,29.54
2.54,-7.66,-1.92,26.46,26.46,26.46
1.78,-7.86,-1.61,25.90,25.90,25.90
0.92,-7.56,-1.25,25.83,25.69,25.69
0.49,-7.25,-1.11,23.87,23.59,23.59
-0.28,-7.06,-1.01,22.61,22.61,22.61
-3.25,-6.74,-0.60,25.69,25.69,26.18
-4.50,-6.85,-0.45,29.12,29.12,29.12
-4.88,-6.53,-0.44,30.66,30.59,30.59
-4.88,-6.18,-0.39,29.82,29.82,29.82
-5.66,-6.43,-0.22,32.90,32.90,32.90
-6.27,-6.57,-0.07,37.94,39.69,39.69
-7.33,-6.25,0.22,43.96,44.73,44.73
-7.76,-5.42,0.15,44.52,43.68,43.68
-7.89,-4.51,0.00,38.85,38.85,37.03
-8.48,-4.20,-0.11,32.20,32.20,32.20
-9.19,-4.50,0.04,32.20,32.27,32.27
-9.64,-3.99,0.24,31.08,31.08,30.59
-10.04,-2.80,0.17,25.83,24.99,24.99
-10.20,-2.12,-0.08,17.71,17.71,17.43
-10.96,-2.45,0.19,17.78,17.78,18.20
-11.73,-2.58,0.62,22.47,22.47,23.31
-11.44,-1.28,0.74,21.98,21.98,21.98
-10.72,-0.19,0.24,10.57,10.57,10.57
-10.85,0.19,0.23,0.56,-0.35,-0.35
-10.66,-0.01,0.29,-4.27,-4.76,-4.76
-10.57,0.20,0.45,-6.02,-6.37,-6.37
-10.47,0.70,0.20,-7.35,-7.35,-7.63
-10.11,1.65,-0.11,-10.57,-10.57,-10.57
-10.61,2.53,-0.24,-13.79,-13.72,-13.72
-11.82,2.56,-0.18,-9.73,-9.73,-9.17
-12.13,3.35,-0.01,-6.37,-6.37,-6.23
-12.02,4.19,-0.24,-6.93,-6.93,-7.35
-11.27,4.68,-0.70,-12.67,-13.58,-13.58
-10.57,4.80,-1.10,-22.33,-22.33,-22.33
-10.65,4.21,-1.04,-28.21,-28.21,-28.21
-10.83,3.62,-0.87,-26.46,-25.48,-25.48
-10.40,3.84,-0.81,-21.21,-21.21,-21.21
-9.91,4.50,-0.87,-16.45,-15.75,-15.75
-9.59,4.80,-0.89,-10.08,-10.08,-9.38
-9.50,4.89,-0.82,-5.67,-4.06,-3.22
-9.68,4.72,-0.75,1.05,2.66,3.36
-9.74,4.95,-0.84,6.44,6.44,7.49
-9.63,5.39,-1.04,8.05,8.05,7.91
-9.57,5.66,-1.17,6.72,6.72,6.37
-9.73,5.54,-1.16,4.76,4.76,4.76
-9.91,5.26,-1.09,4.69,4.76,4.76
-9.99,5.35,-0.99,5.11,5.11,5.11
-9.82,5.43,-0.95,4.76,4.90,4.90
-9.67,5.47,-0.75,4.83,4.83,4.97
-9.50,5.39,-0.59,5.67,5.67,6.30
-9.22,5.42,-0.42,7.77,7.77,7.77
-9.01,5.58,-0.36,8.33,8.40,8.40
-8.87,5.69,-0.39,8.05,8.05,7.98
-8.75,5.84,-0.44,6.65,6.65,6.44
-8.56,5.87,-0.42,4.69,4.69,4.69
-8.68,5.79,-0.38,3.92,3.92,3.92
-9.10,5.66,-0.43,4.13,4.20,4.20
-9.51,5.51,-0.59,5.25,5.60,5.60
-9.81,5.38,-0.67,7.14,7.14,7.49
-9.96,5.40,-0.77,8.54,8.54,8.54
-10.20,5.18,-0.91,9.52,9.52,9.52
-10.38,4.90,-0.99,10.71,11.13,11.13
-10.50,4.69,-1.05,12.46,12.81,12.81
-10.66,4.71,-1.17,13.93,14.07,14.07
-10.86,4.95,-1.27,14.42,14.42,14.35
-11.01,5.03,-1.19,13.37,13.37,13.37
-11.27,4.89,-1.13,12.25,12.25,12.25
-11.43,4.44,-1.10,11.97,11.97,11.97
-11.49,3.99,-0.91,11.90,11.90,11.90
-11.58,3.72,-0.67,11.83,11.97,11.97
-11.83,3.41,-0.53,12.32,12.32,12.32
-12.13,3.09,-0.42,12.60,12.46,12.46
-12.09,3.03,-0.32,11.62,10.50,10.50
-11.81,2.65,-0.18,6.79,6.79,6.79
-11.55,2.05,-0.04,2.03,1.61,1.61
-11.17,1.46,0.10,-1.47,-1.47,-1.47
-11.19,1.20,0.29,-4.76,-4.76,-5.18
-11.24,1.02,0.36,-7.28,-8.26,-8.75
-10.84,0.71,0.50,-11.90,-13.51,-13.51
-10.04,0.15,0.55,-20.23,-20.23,-21.28
-9.50,-0.61,0.44,-28.98,-28.98,-28.98
-8.89,-1.56,0.40,-34.65,-35.35,-35.35
-8.64,-2.45,0.48,-39.41,-39.69,-39.69
-8.48,-2.88,0.44,-40.32,-40.25,-40.25
-8.08,-3.49,0.39,-39.76,-39.13,-39.13
-7.32,-4.06,0.29,-37.80,-37.24,-36.89
-6.80,-4.61,0.19,-35.49,-35.49,-34.44
-6.46,-5.11,0.14,-32.62,-32.62,-32.20
-6.83,-5.85,0.01,-27.23,-27.23,-26.67
-7.26,-5.95,-0.25,-24.15,-24.15,-23.94
-6.80,-5.91,-0.49,-24.29,-24.29,-25.27
-5.52,-5.90,-0.57,-27.72,-27.72,-28.21
-3.99,-6.61,-0.47,-31.29,-31.29,-31.29
-2.79,-7.33,-0.43,-29.96,-29.96,-29.54
-2.03,-7.59,-0.41,-25.76,-25.76,-25.20
-1.31,-7.65,-0.40,-23.03,-22.33,-22.12
-0.31,-7.41,-0.38,-21.91,-21.91,-22.05
0.37,-7.08,-0.52,-24.08,-24.08,-24.64
2.33,-6.65,-0.62,-37.17,-38.22,-38.22
4.17,-6.77,-1.23,-51.45,-51.45,-52.50
4.98,-6.59,-1.34,-55.44,-55.44,-55.44
6.22,-6.44,-1.59,-56.91,-56.91,-56.91
6.97,-6.58,-1.76,-53.55,-53.55,-53.55
7.31,-6.53,-1.77,-46.13,-45.22,-45.22
7.00,-6.24,-1.79,-41.72,-39.97,-39.97
6.01,-6.19,-2.03,-36.33,-36.33,-36.33
5.29,-6.62,-2.15,-27.58,-27.58,-27.58
4.48,-7.04,-2.14,-19.88,-18.83,-18.83
3.60,-6.91,-2.17,-11.48,-11.48,-10.57
3.08,-6.88,-2.43,-7.21,-7.21,-7.00
2.80,-7.58,-2.63,-2.94,-2.94,-1.82
3.01,-8.29,-2.52,6.44,7.77,7.77
2.98,-8.34,-2.39,16.38,16.38,16.38
2.69,-8.06,-2.41,20.58,21.14,21.14
2.10,-8.16,-2.55,24.08,24.08,24.08
1.42,-8.58,-2.50,28.42,28.42,28.42
0.68,-8.62,-2.20,32.55,32.55,32.55
0.25,-8.08,-2.02,31.99,31.36,31.36
-0.30,-7.93,-2.01,29.61,29.61,29.61
-0.57,-8.78,-1.85,32.55,32.55,32.55
-1.34,-9.18,-1.60,40.60,40.60,42.28
-2.23,-8.43,-1.31,44.87,44.87,44.87
-2.55,-7.52,-1.22,41.79,40.95,40.95
-3.71,-7.90,-0.64,38.85,38.85,38.85
-4.85,-7.46,-0.50,37.03,36.40,36.40
-5.49,-6.59,-0.74,28.91,27.51,27.51
-5.66,-6.96,-0.65,20.86,20.86,20.16
-5.87,-7.56,-0.33,21.00,21.00,21.00
-6.19,-7.77,-0.15,26.04,26.04,26.04
-6.54,-6.85,-0.04,29.82,29.96,29.96
-7.35,-6.17,0.30,34.23,34.23,34.23
-7.94,-6.02,0.38,39.76,40.60,40.60
-7.60,-4.49,0.23,38.43,38.43,36.47
-7.86,-3.40,0.06,28.91,28.91,25.76
-9.69,-2.98,0.14,17.36,17.36,16.52
-9.79,-3.45,0.45,17.43,17.43,18.06
-10.38,-3.04,0.55,19.74,19.74,19.74
-10.29,-1.97,0.35,13.16,13.16,13.16
-11.30,-1.98,0.23,4.97,4.97,4.97
-11.36,-1.90,0.33,7.42,7.91,7.91
-11.66,-1.85,0.41,11.13,13.02,13.02
-10.87,-1.44,0.33,14.98,15.19,15.19
-10.00,-0.43,0.06,11.69,12.11,12.11
-10.52,-0.40,0.09,15.82,16.24,16.24
-10.27,0.72,-0.02,17.22,17.15,17.15
-10.10,1.62,0.04,13.51,13.51,13.09
-10.16,1.96,0.08,10.71,9.94,9.31
-10.31,2.25,0.15,7.28,7.28,6.37
-10.47,3.05,-0.02,0.35,0.35,0.14
-11.25,3.07,-0.03,-0.77,-0.77,-0.77
-11.46,3.03,-0.11,0.35,0.42,0.42
-11.38,3.24,-0.23,0.91,0.98,1.05
-11.31,3.46,-0.43,1.05,0.91,0.70
-10.87,3.63,-0.78,-2.10,-2.17,-2.17
-10.46,3.64,-0.83,-2.31,-2.31,-2.31
-10.18,3.86,-0.86,-1.12,-1.12,-1.12
-9.88,4.03,-0.93,-0.70,-0.70,-0.77
-9.50,4.28,-1.03,-1.12,-1.12,-1.12
-9.21,4.40,-1.00,-0.35,-0.35,-0.35
-9.01,4.41,-0.93,1.96,1.96,1.96
-9.15,4.47,-0.97,3.29,3.64,3.64
-9.23,4.65,-1.03,3.78,3.78,3.78
-9.33,4.87,-1.07,2.80,2.80,2.80
-9.46,4.85,-1.00,1.75,1.75,1.89
-9.58,4.74,-0.95,2.38,2.38,2.38
-9.66,4.64,-0.95,2.80,3.08,3.08
-9.75,4.60,-0.95,3.71,3.71,3.92
-9.79,4.71,-0.92,4.90,4.90,4.90
-9.74,4.83,-0.99,5.46,5.46,5.46
-9.64,4.85,-0.95,5.95,5.95,5.95
-9.48,4.69,-0.89,6.30,6.30,6.30
-9.41,4.58,-0.81,8.12,8.12,8.12
-9.44,4.56,-0.80,9.66,9.66,9.66
-9.62,4.67,-0.88,10.78,10.78,10.78
-9.61,4.94,-0.88,10.50,10.50,10.50
-9.68,5.01,-0.88,8.96,8.96,8.96
-9.88,4.85,-0.90,7.21,7.21,7.21
-10.12,4.54,-0.98,5.74,5.74,5.74
-10.34,4.45,-0.96,5.60,5.60,5.60
-10.68,4.35,-0.95,6.23,6.23,6.23
-11.04,4.22,-0.95,6.65,6.65,6.65
-11.37,4.13,-0.93,7.42,7.42,7.42
-11.47,3.82,-0.94,8.19,8.40,8.40
-11.60,3.41,-0.91,9.24,9.38,9.38
-11.68,3.11,-0.95,9.94,9.87,9.87
-11.86,3.11,-1.03,9.59,9.38,9.38
-11.91,3.09,-1.03,8.54,8.47,8.47
-11.84,2.86,-0.83,6.44,6.16,6.16
-11.71,2.74,-0.76,2.87,2.38,2.38
-11.62,2.59,-0.68,-1.89,-2.59,-2.59
-11.51,2.26,-0.64,-6.93,-7.49,-7.49
-11.01,1.66,-0.52,-12.11,-12.67,-12.67
-10.70,1.03,-0.39,-17.43,-17.43,-17.78
-10.60,0.45,-0.31,-19.11,-19.25,-19.25
-10.74,-0.28,-0.36,-18.97,-18.97,-18.97
-10.73,-0.75,-0.34,-18.06,-18.06,-18.06
-10.37,-1.04,-0.49,-18.97,-18.97,-18.97
-9.60,-1.54,-0.51,-20.86,-20.86,-20.86
-9.20,-2.26,-0.44,-21.84,-21.84,-21.84
-8.89,-2.78,-0.44,-21.14,-21.14,-21.14
-8.54,-3.22,-0.48,-19.95,-19.95,-19.95
-8.53,-3.63,-0.57,-17.99,-17.99,-17.99
-8.10,-4.10,-0.57,-16.45,-16.45,-16.45
-7.22,-4.23,-0.55,-16.59,-16.66,-16.66
-6.78,-4.58,-0.55,-17.08,-17.08,-17.08
-6.81,-5.02,-0.57,-16.80,-16.80,-16.80
-6.45,-5.20,-0.66,-18.27,-18.69,-18.69
-6.15,-5.29,-0.71,-20.72,-21.70,-21.70
-5.92,-5.74,-0.79,-23.17,-23.45,-23.45
-5.41,-6.48,-0.82,-23.10,-23.10,-23.10
-4.69,-7.13,-0.82,-21.70,-21.70,-21.42
-3.90,-7.50,-0.87,-19.04,-19.04,-19.04
-2.91,-7.70,-0.92,-17.85,-17.85,-17.85
-2.26,-7.93,-1.01,-17.22,-17.22,-17.22
-1.95,-8.28,-1.00,-16.10,-16.10,-16.10
-1.43,-8.38,-1.02,-14.56,-14.56,-14.56
-0.88,-8.38,-1.00,-14.28,-14.28,-14.28
-0.35,-8.27,-1.06,-14.98,-15.26,-15.61
0.06,-8.49,-1.00,-16.52,-16.45,-16.45
0.24,-8.60,-0.89,-15.68,-15.68,-15.61
0.53,-8.45,-0.92,-15.33,-15.33,-15.33
1.10,-7.86,-1.09,-18.27,-18.69,-18.69
1.96,-7.53,-1.25,-21.63,-23.17,-23.17
2.90,-7.94,-1.33,-24.29,-24.08,-24.08
3.89,-8.29,-1.40,-22.54,-22.05,-21.14
4.12,-8.19,-1.33,-18.55,-18.06,-18.06
4.23,-7.38,-1.60,-19.32,-20.02,-20.02
4.39,-6.86,-1.84,-24.71,-26.88,-27.86
4.83,-7.26,-2.17,-33.04,-33.04,-33.04
5.29,-7.63,-2.36,-34.65,-34.44,-34.44
5.31,-7.85,-2.34,-32.41,-31.92,-31.92
5.24,-7.77,-2.36,-29.26,-29.26,-29.12
5.30,-7.62,-2.45,-28.63,-28.14,-27.93
5.53,-7.80,-2.41,-24.78,-24.78,-24.78
5.58,-7.76,-2.41,-19.88,-19.04,-17.29
5.49,-7.65,-2.24,-12.81,-11.90,-11.90
5.24,-7.42,-2.20,-3.78,-3.78,-2.94
4.78,-7.49,-2.36,1.12,1.12,3.36
4.16,-7.50,-2.45,7.14,7.14,7.84
3.75,-7.40,-2.40,12.81,12.81,13.37
3.41,-7.49,-2.40,15.40,15.40,15.75
3.43,-7.74,-2.42,18.34,18.34,18.76
3.37,-8.41,-2.35,24.43,24.43,25.20
3.28,-8.68,-2.25,29.82,29.82,32.97
2.75,-8.65,-2.14,38.01,38.01,38.85
2.13,-8.54,-2.11,44.94,44.94,45.50
1.24,-8.88,-1.98,49.21,49.21,49.21
0.40,-9.21,-1.55,55.58,56.14,56.14
-0.14,-8.93,-1.27,57.89,57.89,57.89
-0.12,-8.57,-1.04,56.07,56.07,55.72
0.21,-8.69,-0.82,54.25,54.25,54.32
-0.04,-9.19,-0.63,55.65,56.63,57.26
-1.01,-9.15,-0.30,61.53,61.53,62.02
-1.87,-8.67,-0.11,63.91,63.91,64.12
-2.97,-8.15,-0.04,64.05,64.05,63.77
-4.26,-7.07,0.13,60.83,60.83,60.13
-5.08,-6.59,0.41,53.97,53.97,53.06
-5.46,-6.69,0.72,48.51,48.51,47.88
-5.48,-6.85,1.00,44.10,44.10,43.05
-5.53,-6.84,1.12,39.83,39.83,38.57
-6.11,-6.59,2.44,34.58,34.58,34.58
-6.30,-6.40,1.25,25.34,25.34,25.34
-6.39,-6.32,1.19,15.40,15.40,15.40
-6.15,-6.33,1.05,6.79,6.79,6.79
-6.81,-6.59,1.04,1.68,1.68,1.68
-7.84,-6.75,1.01,8.26,8.26,8.26
-8.52,-6.36,0.91,14.00,14.00,14.00
-8.69,-5.84,0.76,17.99,18.27,18.27
-8.34,-5.17,0.63,18.69,18.69,18.76
-8.43,-4.50,0.61,19.53,19.53,19.81
-9.18,-4.25,0.85,23.24,24.36,24.36
-9.22,-3.85,0.91,26.32,26.04,26.04
-8.47,-3.26,0.77,20.16,20.16,19.18
-8.45,-2.61,0.79,13.93,13.93,13.23
-8.67,-2.60,0.81,10.71,10.71,10.71
-9.13,-2.31,0.82,10.71,10.71,10.71
-9.32,-2.30,0.92,11.69,11.69,11.69
-9.18,-2.16,0.95,11.76,11.41,11.41
-8.96,-1.70,0.82,9.59,8.54,8.54
-9.15,-0.93,0.67,6.30,6.02,5.67
-9.97,-0.69,0.74,8.12,8.12,8.12
-9.92,-0.31,0.77,13.79,13.79,15.05
-9.80,0.44,0.78,18.13,18.13,18.55
-9.80,1.31,0.58,19.25,19.18,19.18
-10.28,2.01,0.49,19.04,19.04,18.90
-11.02,2.72,0.48,18.62,18.62,18.55
-11.18,3.01,0.39,16.87,16.87,16.87
-10.59,3.31,0.29,10.78,10.78,8.54
-9.68,3.37,-0.08,1.89,0.56,0.56
-9.38,3.32,-0.29,-11.27,-12.25,-12.25
-9.38,3.06,-0.33,-16.38,-17.85,-17.85
-9.71,2.83,-0.32,-18.20,-17.36,-17.36
-10.11,3.01,-0.33,-13.37,-13.37,-13.37
-10.19,3.52,-0.49,-7.77,-6.51,-6.51
-10.27,4.11,-0.78,-2.73,-1.19,-1.19
-11.29,4.43,-0.90,5.18,5.18,5.18
-11.81,4.53,-0.91,12.11,12.11,12.11
-11.71,4.89,-1.09,12.04,12.04,12.04
-11.74,5.17,-1.21,6.16,6.16,6.16
-11.59,5.12,-1.36,0.14,-0.77,-0.77
-11.41,4.71,-1.37,-8.75,-8.75,-9.38
-11.33,4.22,-1.23,-12.04,-12.04,-12.04
-11.16,3.82,-1.17,-12.25,-12.25,-12.25
-10.87,3.54,-1.13,-10.43,-10.43,-10.43
-10.60,3.55,-1.00,-5.04,-5.04,-5.04
-10.36,3.67,-0.92,-1.40,-0.07,-0.07
-10.03,3.95,-0.85,3.01,3.01,3.71
-9.82,4.30,-0.81,5.39,5.39,5.67
-9.92,4.62,-0.80,5.95,6.02,6.02
-10.00,4.85,-0.90,4.48,4.48,4.34
-10.12,4.97,-0.95,2.80,2.80,2.66
-10.24,4.97,-1.02,1.61,1.33,1.26
-10.46,4.75,-1.06,0.77,0.77,0.84
-10.82,4.53,-1.04,1.54,1.54,1.75
-11.33,4.47,-0.97,3.57,3.57,3.85
-11.55,4.29,-0.93,5.11,5.39,5.60
-11.55,4.09,-0.84,6.23,6.23,6.30
-11.27,3.29,-0.69,9.03,9.03,8.96
-10.91,3.30,-0.68,8.75,8.75,8.75
-10.66,3.25,-0.56,7.49,7.49,7.49
-10.33,3.18,-0.42,6.09,5.46,5.46
-10.29,2.80,-0.15,-2.17,-2.17,-2.59
-10.70,2.78,-0.09,-4.90,-5.67,-6.16
-10.94,2.53,-0.03,-7.98,-7.98,-9.45
-10.62,1.87,0.02,-13.72,-13.72,-13.72
-10.63,1.16,0.10,-18.69,-19.67,-19.67
-10.94,0.33,0.10,-21.28,-21.28,-21.28
-10.86,-0.33,0.07,-20.72,-20.72,-20.72
-10.51,-0.79,0.09,-19.81,-19.67,-19.67
-10.04,-1.42,0.06,-18.13,-18.13,-17.85
-9.40,-1.95,0.02,-16.31,-16.31,-16.03
-9.04,-2.28,-0.02,-14.07,-14.07,-14.07
-8.82,-2.75,0.07,-13.44,-13.30,-13.30
-8.58,-2.99,0.05,-14.21,-14.21,-14.21
-8.36,-3.33,0.02,-16.31,-16.31,-16.31
-8.08,-3.73,-0.03,-19.46,-19.46,-19.46
-7.60,-4.22,-0.08,-21.98,-21.98,-21.98
-7.17,-4.65,-0.09,-23.80,-24.29,-24.29
-7.08,-5.15,-0.17,-24.99,-24.99,-24.99
-7.00,-5.86,-0.14,-22.75,-22.75,-22.75
-6.75,-6.39,-0.10,-19.32,-19.32,-19.32
-6.51,-6.66,-0.06,-16.52,-16.24,-16.24
-5.33,-7.29,-0.14,-12.88,-12.88,-12.81
-4.88,-7.76,-0.06,-11.83,-11.83,-11.83
-4.77,-8.11,-0.01,-9.80,-9.80,-9.80
-3.80,-8.12,-0.09,-8.75,-8.75,-8.75
-1.36,-7.94,-0.20,-18.76,-19.11,-19.11
-0.55,-8.11,-0.16,-21.56,-21.56,-21.70
0.16,-8.15,-0.20,-22.47,-22.68,-22.68
0.47,-8.27,-0.23,-22.89,-22.96,-22.96
0.92,-8.04,-0.30,-24.85,-24.85,-25.20
1.61,-8.02,-0.32,-27.72,-27.72,-28.14
2.22,-7.95,-0.51,-32.34,-32.34,-32.34
2.80,-7.73,-0.93,-38.29,-38.29,-38.92
3.10,-7.78,-1.23,-42.28,-42.70,-42.70
3.73,-8.01,-1.65,-44.45,-44.45,-44.52
4.45,-8.21,-1.95,-42.42,-42.42,-42.42
4.99,-8.03,-2.11,-38.01,-38.01,-38.01
5.57,-7.32,-2.26,-35.98,-35.98,-35.98
6.15,-6.58,-2.37,-36.82,-37.24,-37.24
7.07,-6.34,-2.46,-37.87,-37.87,-37.59
7.53,-6.84,-2.43,-32.90,-32.90,-32.90
7.21,-6.93,-2.24,-26.11,-24.85,-24.85
6.66,-6.61,-2.14,-17.22,-17.22,-16.66
5.73,-6.51,-2.20,-14.14,-14.14,-13.65
5.04,-7.04,-2.15,-9.38,-9.38,-8.54
4.47,-7.55,-2.05,-3.43,-1.33,-0.21
4.12,-7.54,-2.09,4.41,4.41,6.72
3.70,-7.72,-2.15,9.73,9.73,11.20
3.35,-8.14,-2.26,14.28,14.28,14.28
3.54,-8.43,-2.23,17.22,17.22,18.20
3.39,-8.84,-2.12,21.56,21.56,21.56
3.33,-9.22,-1.93,28.49,28.49,28.49
3.02,-9.30,-1.84,34.30,34.30,34.30
2.72,-9.42,-1.75,38.85,38.85,38.85
2.10,-9.53,-1.58,43.26,43.82,43.82
1.16,-9.40,-1.38,46.13,46.34,46.62
0.94,-8.82,-1.23,45.78,45.43,45.43
1.03,-8.79,-1.04,41.30,40.88,40.88
0.65,-9.04,-0.83,39.34,39.13,39.13
0.11,-8.89,-0.62,37.87,37.03,36.40
-0.31,-8.14,-0.37,29.12,29.12,29.12
-0.83,-7.81,-0.30,18.97,14.21,14.21
-1.36,-8.08,-0.13,3.43,3.43,3.43
-1.78,-8.45,-0.07,-10.15,-10.15,-10.15
-2.25,-10.11,-0.21,-16.24,-16.24,-16.24
-2.35,-10.05,-0.43,-7.91,-6.93,-6.93
-2.74,-9.83,-0.53,-2.10,17.85,0.98
-3.06,-9.65,-0.56,6.58,6.58,6.58
-2.98,-9.05,-0.67,11.76,11.76,12.11
-2.59,-8.57,-0.71,13.09,13.51,13.58
-2.49,-8.27,-0.71,14.70,14.91,14.91
-3.00,-8.15,-0.67,17.36,17.36,17.36
-4.09,-7.72,-0.66,18.13,18.13,18.13
-4.82,-7.22,-0.66,15.82,15.82,15.82
-4.97,-6.72,-0.70,9.03,9.03,9.03
-5.89,-6.73,-0.51,5.32,5.32,5.32
-6.61,-6.57,-0.29,3.01,3.01,2.45
-6.13,-5.58,-0.60,-10.99,-10.99,-10.99
-5.75,-5.88,-0.66,-16.59,-16.59,-16.59
-6.51,-6.17,-0.60,-12.46,-12.46,-12.46
-7.48,-5.83,-0.63,-8.33,-8.33,-8.33
-8.19,-5.21,-0.89,-5.81,-5.39,-5.39
-8.87,-5.26,-1.00,-3.36,-1.40,-1.40
-9.48,-5.15,-1.16,2.03,2.87,4.48
-10.18,-5.01,-1.07,9.87,9.87,9.87
-10.59,-4.47,-1.07,15.05,15.05,15.05
-10.67,-4.36,-0.95,19.18,19.18,19.18
-10.12,-4.12,-0.98,22.12,22.89,22.89
-9.27,-3.57,-0.94,24.92,24.92,24.92
-8.69,-3.22,-0.78,27.72,28.35,28.35
-8.47,-2.70,-0.60,30.17,30.17,30.38
-8.59,-1.60,-0.65,30.17,30.17,30.17
-9.00,-0.67,-0.64,27.79,27.79,27.79
-9.60,0.12,-0.44,26.60,26.04,26.04
-10.18,0.72,-0.22,24.01,24.01,23.59
-10.50,1.62,-0.19,18.13,18.13,17.08
-10.68,2.26,-0.28,5.32,5.32,5.32
-10.72,2.48,-0.39,-3.36,-3.36,-3.36
-10.56,2.37,-0.36,-9.38,-9.94,-9.94
-10.31,2.12,-0.28,-10.29,-10.29,-10.22
-10.09,2.12,-0.48,-8.05,-8.05,-8.05
-10.11,2.33,-0.56,-4.83,-4.83,-4.83
-10.30,2.60,-0.68,0.21,0.21,0.21
-10.55,3.11,-0.84,2.94,2.94,2.94
-11.17,3.62,-0.83,4.62,5.25,5.25
-11.82,3.92,-0.81,6.72,6.72,6.79
-11.93,4.11,-0.87,5.46,4.62,4.62
-11.66,4.33,-0.94,-0.28,-0.28,-0.28
-11.35,4.37,-1.01,-9.24,-9.24,-9.24
-10.86,4.06,-1.07,-15.75,-15.75,-15.75
-10.40,3.67,-1.08,-19.18,-19.18,-19.18
-10.16,3.20,-1.08,-18.69,-18.20,-18.20
-9.97,2.90,-1.06,-14.07,-14.07,-14.07
-9.93,3.14,-1.00,-8.68,-8.68,-7.91
-10.10,3.31,-1.00,-1.96,-1.96,-1.96
-10.25,3.43,-0.98,1.47,2.59,2.59
-10.48,3.74,-1.00,5.11,5.25,5.25
-10.71,4.13,-1.03,5.18,5.18,4.97
-10.97,4.21,-1.06,3.29,2.52,2.03
-11.23,4.09,-1.09,0.21,-0.49,-0.84
-11.56,3.91,-1.07,-1.96,-1.96,-2.24
-12.01,3.59,-0.94,-1.54,-1.05,-1.05
-12.05,3.31,-0.93,0.63,0.63,1.61
-12.07,3.13,-0.91,4.20,4.20,4.20
-11.90,2.84,-0.86,9.59,9.59,9.59
-11.69,2.65,-0.80,14.00,14.00,14.00
-11.80,2.48,-0.71,17.92,17.92,17.92
-11.89,2.62,-0.67,21.77,22.33,22.33
-11.96,2.96,-0.68,22.68,22.68,22.47
-12.13,3.25,-0.73,20.37,19.88,19.88
-12.24,3.07,-0.68,15.75,15.75,15.19
-12.05,2.86,-0.65,11.34,9.52,8.61
-11.69,2.75,-0.72,1.61,1.61,1.61
-11.27,2.17,-0.70,-6.51,-7.28,-7.28
-10.96,1.55,-0.61,-10.08,-11.41,-11.41
-10.61,0.99,-0.51,-12.74,-13.23,-13.23
-10.36,0.58,-0.48,-14.07,-14.07,-14.07
-10.09,0.18,-0.45,-14.21,-14.07,-14.07
-9.95,-0.53,-0.38,-13.37,-13.37,-13.37
-9.68,-0.92,-0.37,-13.44,-13.44,-13.44
-9.55,-1.18,-0.44,-14.77,-14.77,-14.77
-9.57,-1.57,-0.41,-15.75,-16.10,-16.10
-9.71,-2.15,-0.42,-16.66,-16.66,-16.66
-9.75,-2.66,-0.39,-16.66,-16.66,-16.66
-9.75,-3.07,-0.38,-16.87,-16.87,-16.87
-9.82,-3.67,-0.49,-17.85,-17.85,-17.85
-9.29,-4.02,-0.45,-20.37,-20.37,-20.79
-8.51,-4.35,-0.44,-25.55,-25.55,-25.55
-6.99,-4.91,-0.41,-27.65,-27.65,-27.65
-5.58,-5.64,-0.29,-26.95,-26.95,-26.95
-4.28,-6.17,-0.17,-24.99,-24.99,-24.99
-3.30,-6.48,-0.14,-21.98,-21.35,-21.35
-3.00,-7.24,-0.11,-17.64,-16.87,-16.87
-2.55,-7.34,-0.22,-12.88,-12.74,-12.67
-2.73,-7.05,-0.46,-14.35,-14.91,-14.91
-2.98,-6.97,-0.75,-23.17,-24.15,-24.15
-3.20,-7.08,-1.06,-30.03,-30.03,-30.80
-3.57,-8.55,-1.18,-34.30,-34.30,-33.88
-3.42,-8.99,-1.11,-28.98,-27.02,-27.02
-2.89,-9.04,-1.00,-20.65,-20.65,-18.34
-1.93,-9.20,-0.76,-11.55,-10.36,-10.36
-1.14,-9.27,-0.37,-1.33,-1.33,-0.49
-0.77,-8.76,-0.31,3.29,3.29,3.64
-0.23,-8.31,-0.39,4.27,4.27,3.78
0.50,-7.86,-0.44,0.63,0.63,0.63
1.11,-7.51,-0.63,-9.38,-9.38,-9.38
1.62,-7.59,-0.74,-15.61,-15.61,-15.61
2.38,-8.00,-1.02,-22.89,-22.89,-22.89
2.93,-8.07,-1.24,-26.39,-26.39,-26.39
3.31,-8.21,-1.43,-27.72,-27.72,-27.93
3.68,-8.20,-1.71,-28.91,-29.05,-29.05
4.22,-7.93,-1.90,-30.38,-30.38,-30.45
4.89,-7.87,-1.93,-30.45,-30.17,-30.10
6.46,-6.44,-2.65,-33.25,-33.67,-33.67
7.31,-6.09,-2.77,-36.26,-37.17,-37.17
7.88,-6.42,-2.82,-36.33,-36.33,-36.33
7.63,-6.68,-2.77,-31.78,-30.87,-30.87
7.15,-6.53,-2.73,-24.50,-24.01,-24.01
6.47,-6.73,-2.77,-20.65,-20.65,-19.81
5.63,-7.49,-2.72,-13.16,-13.16,-11.76
4.69,-7.92,-2.51,1.40,1.40,1.40
3.85,-8.01,-2.49,8.89,10.01,10.01
3.08,-8.20,-2.46,16.87,16.87,17.50
2.75,-8.52,-2.44,23.31,23.31,23.31
3.12,-8.78,-2.43,27.58,27.58,27.58
3.75,-8.91,-2.38,31.22,31.22,32.13
4.66,-8.96,-2.29,34.86,35.14,35.14
4.84,-9.07,-2.24,37.52,37.52,38.78
4.48,-9.27,-2.03,41.37,41.37,41.93
3.99,-8.84,-1.87,43.05,43.05,42.77
3.80,-8.55,-1.72,40.04,40.04,40.04
3.98,-8.44,-1.59,36.89,36.47,36.47
3.91,-8.36,-1.42,33.25,32.97,32.97
3.13,-8.53,-1.17,31.43,31.43,30.66
2.31,-8.25,-1.00,28.07,28.07,27.51
1.93,-8.24,-0.96,20.09,20.09,19.46
1.87,-8.44,-0.89,16.59,16.59,15.19
1.82,-8.59,-0.74,13.86,13.86,13.65
1.37,-8.67,-0.57,12.81,12.81,12.81
0.69,-8.74,-0.51,12.32,12.32,12.04
0.44,-8.77,-0.50,11.20,11.20,11.20
0.40,-8.79,-0.46,11.62,11.62,11.76
-0.25,-8.87,-0.39,13.30,13.65,13.65
-0.95,-8.84,-0.32,15.12,15.12,15.19
-1.55,-8.71,-0.32,14.91,14.84,14.98
-1.61,-8.59,-0.32,14.56,14.56,14.28
-1.65,-8.48,-0.25,13.72,13.72,13.51
-1.69,-8.34,-0.22,12.32,12.32,12.32
-1.96,-8.42,-0.17,12.95,13.37,13.37
-2.60,-8.67,-0.13,16.73,17.36,17.36
-3.35,-8.30,-0.09,20.93,20.93,20.93
-3.87,-7.32,-0.12,17.15,17.15,16.24
-4.51,-7.47,-0.04,5.11,5.53,5.53
-5.04,-8.26,0.10,9.87,10.85,10.85
-5.61,-7.84,0.17,17.64,17.64,18.06
-6.03,-7.03,0.16,18.27,18.27,18.27
-6.91,-6.41,0.08,14.56,14.56,13.30
-7.31,-6.13,0.03,10.08,10.08,10.08
-7.29,-6.63,0.26,10.01,10.43,10.43
-8.16,-5.23,0.03,5.11,5.11,5.11
-8.19,-5.01,0.05,0.28,0.28,0.28
-8.73,-5.25,0.17,2.66,2.66,2.66
-9.39,-5.10,0.26,8.75,8.75,8.75
-9.49,-4.11,0.11,9.66,9.38,9.38
-9.21,-3.61,-0.07,6.79,6.79,6.79
-9.05,-3.53,-0.12,5.39,5.81,5.81
-9.45,-3.34,0.05,9.66,9.66,9.66
-10.24,-2.89,0.15,16.94,17.57,17.57
-10.49,-2.00,0.09,19.25,19.11,19.11
-10.43,-1.31,-0.11,16.45,16.45,15.82
-10.28,-0.85,-0.20,8.89,8.89,8.89
-10.06,-0.84,-0.11,5.81,5.81,5.81
-10.33,-0.93,0.14,7.14,7.14,7.14
-10.11,-0.64,0.11,10.15,10.15,10.15
-9.57,0.09,-0.00,10.15,10.15,10.15
-9.59,0.53,0.01,9.52,9.31,9.31
-9.94,0.80,0.03,9.24,9.24,9.17
-10.18,1.44,-0.14,7.70,7.70,7.70
-10.72,1.98,-0.15,5.46,5.46,4.97
-11.01,2.63,-0.38,-3.22,-3.22,-3.22
-10.31,2.86,-0.50,-10.29,-10.29,-10.29
-10.27,2.83,-0.47,-13.51,-13.79,-13.79
-10.51,2.33,-0.56,-13.02,-13.02,-12.74
-10.10,2.53,-0.75,-12.04,-12.04,-12.04
-10.20,2.97,-0.95,-10.92,-10.92,-10.92
-10.38,2.91,-1.06,-8.75,-8.75,-8.75
-10.80,2.65,-1.02,-5.39,-4.55,-4.55
-10.94,2.60,-1.00,1.47,1.47,2.03
-10.95,2.94,-1.09,4.62,5.25,5.60
-10.89,3.18,-1.23,6.86,6.86,7.56
-11.17,3.09,-1.15,8.82,8.82,9.87
-11.25,3.05,-1.05,11.62,11.62,11.69
-11.20,3.28,-1.02,11.48,11.48,11.48
-10.96,3.66,-0.98,5.46,4.97,4.97
-10.86,3.35,-0.96,1.40,1.26,1.26
-10.83,3.08,-0.82,0.21,0.21,0.07
-10.91,2.99,-0.82,-0.14,-0.14,-0.14
-11.04,2.99,-0.78,-0.35,-0.35,-0.35
-11.34,2.92,-0.71,0.70,1.19,1.19
-11.54,2.67,-0.60,3.22,3.22,3.57
-11.63,2.64,-0.57,5.95,5.95,5.95
-11.71,2.76,-0.60,6.58,6.58,6.58
-11.75,2.95,-0.61,6.37,6.37,6.09
-11.71,3.03,-0.70,5.32,5.32,5.32
-11.59,2.83,-0.70,4.69,4.69,4.69
-11.47,2.70,-0.75,4.55,4.55,4.55
-11.39,2.72,-0.74,5.04,5.04,5.04
-11.13,2.59,-0.73,5.53,5.53,5.53
-10.99,2.28,-0.61,7.07,7.21,7.21
-11.04,2.07,-0.51,8.19,8.54,8.54
-11.17,2.17,-0.47,8.19,8.05,7.84
-11.29,2.23,-0.45,5.18,5.18,4.69
-11.27,2.00,-0.41,-0.07,-0.07,-0.07
-11.12,1.40,-0.33,-3.15,-3.64,-3.64
-11.01,0.78,-0.29,-7.28,-7.28,-7.28
-10.87,0.45,-0.31,-9.52,-9.52,-9.52
-10.74,-0.10,-0.28,-10.50,-10.36,-10.36
-10.53,-0.62,-0.24,-11.06,-11.06,-11.06
-10.38,-0.96,-0.14,-9.94,-9.94,-9.94
-10.15,-1.50,-0.10,-8.12,-8.12,-8.12
-9.88,-1.79,-0.08,-6.44,-6.37,-6.37
-9.71,-2.09,-0.07,-6.44,-6.44,-6.44
-9.42,-2.32,-0.07,-8.68,-8.68,-9.03
-9.01,-2.59,-0.07,-11.27,-12.25,-12.67
-8.50,-2.98,-0.09,-15.40,-15.40,-17.15
-8.15,-3.40,-0.12,-19.88,-19.88,-21.21
-8.15,-4.14,-0.07,-22.40,-22.40,-22.40
-7.82,-4.59,-0.05,-21.56,-21.56,-21.56
-7.67,-5.08,-0.06,-19.74,-19.74,-19.74
-7.29,-5.55,-0.10,-17.78,-17.78,-17.78
-6.47,-5.75,-0.24,-16.66,-16.66,-16.66
-6.20,-6.06,-0.23,-16.52,-16.45,-16.45
-6.25,-6.59,-0.22,-15.40,-15.26,-15.26
-5.93,-6.70,-0.24,-15.54,-15.54,-15.54
-5.61,-7.09,-0.27,-16.45,-16.45,-16.59
-5.41,-7.47,-0.31,-16.80,-16.80,-16.80
-4.89,-7.66,-0.31,-18.06,-18.06,-18.06
-4.07,-7.71,-0.30,-20.37,-20.37,-20.37
-3.42,-7.96,-0.29,-23.10,-23.10,-23.10
-2.86,-8.55,-0.22,-21.35,-21.35,-21.35
-2.60,-8.86,-0.18,-18.69,-18.69,-17.99
-2.23,-8.62,-0.21,-16.94,-16.94,-17.01
-1.96,-8.49,-0.33,-18.41,-18.62,-18.62
-1.57,-8.71,-0.29,-19.39,-19.53,-19.60
-0.86,-8.60,-0.28,-20.09,-20.09,-20.58
0.14,-8.33,-0.33,-23.17,-23.17,-23.17
0.51,-8.24,-0.45,-28.28,-28.28,-28.28
0.99,-8.39,-0.57,-31.08,-31.57,-31.57
1.34,-8.48,-0.63,-33.81,-33.81,-34.02
1.53,-8.59,-0.87,-35.56,-35.56,-35.56
1.81,-8.40,-1.13,-36.26,-36.26,-36.26
2.43,-8.27,-1.23,-36.96,-36.96,-36.96
3.24,-7.88,-1.70,-37.94,-37.94,-37.94
4.03,-7.64,-2.01,-38.57,-38.57,-38.57
4.83,-7.39,-2.16,-38.71,-38.71,-38.71
5.71,-7.00,-2.30,-38.43,-38.43,-38.43
6.70,-6.61,-2.46,-39.34,-39.34,-39.34
7.50,-6.15,-2.58,-40.88,-40.88,-40.88
7.87,-6.07,-2.68,-41.51,-41.51,-41.51
7.79,-6.38,-2.65,-37.66,-37.66,-37.66
7.38,-6.37,-2.61,-33.18,-33.18,-33.18
6.63,-6.31,-2.64,-27.09,-27.09,-27.09
5.72,-6.68,-2.64,-22.33,-21.28,-21.28
5.09,-7.00,-2.67,-13.44,-13.44,-9.80
4.37,-6.72,-2.68,-3.43,-3.43,-3.43
4.08,-6.63,-2.79,0.07,0.07,0.07
3.80,-7.25,-2.86,2.66,2.66,4.13
3.95,-8.16,-2.70,11.06,11.06,12.25
3.95,-8.48,-2.50,24.01,24.01,24.01
3.86,-8.20,-2.49,30.38,32.13,32.13
3.60,-7.91,-2.46,36.40,36.40,37.45
2.94,-8.34,-2.31,43.19,43.19,43.19
1.88,-8.65,-2.04,49.00,49.77,51.03
1.06,-8.10,-1.82,52.01,51.94,51.94
0.45,-7.41,-1.81,45.43,45.43,44.59
0.84,-8.10,-1.54,40.95,40.95,40.95
0.91,-9.01,-1.17,43.89,43.89,43.89
-0.05,-8.98,-0.86,50.75,50.75,50.75
-0.62,-7.89,-0.86,47.81,47.81,47.81
-1.45,-6.95,-1.04,37.59,37.59,37.59
-1.78,-7.49,-0.74,31.85,31.57,31.57
-2.80,-8.44,-0.43,31.78,31.92,31.92
-3.57,-8.11,-0.27,32.41,32.41,31.85
-4.87,-7.26,-0.45,27.37,24.99,24.99
-4.47,-7.48,-0.34,19.60,19.60,19.32
-6.48,-8.23,0.07,24.92,24.92,25.20
-5.87,-7.50,-0.12,21.56,21.56,21.56
-5.46,-7.08,-0.21,17.64,17.36,17.36
-5.72,-7.56,-0.00,20.79,20.79,21.49
-8.00,-5.70,0.04,32.83,30.24,30.24
-7.99,-5.16,-0.04,22.89,22.89,21.07
-8.15,-5.32,0.10,17.78,17.78,17.78
-9.04,-5.66,0.38,20.58,21.49,23.24
-9.29,-5.41,0.32,26.74,27.16,27.58
-8.56,-3.98,-0.01,24.08,24.08,23.03
-7.75,-3.26,-0.31,14.49,14.49,14.49
-7.73,-3.41,-0.19,10.29,10.29,10.29
-8.13,-3.67,-0.03,18.06,18.06,18.06
-8.93,-3.00,0.07,25.48,25.48,25.48
-9.61,-1.98,-0.03,28.21,28.21,28.21
-10.23,-0.65,-0.26,22.47,22.47,22.47
-10.76,0.25,-0.38,16.73,16.73,15.54
-11.38,0.38,-0.06,13.44,13.44,13.44
-11.64,0.39,0.07,13.93,13.93,14.00
-11.14,0.95,0.01,10.92,10.92,10.92
-10.95,1.19,-0.05,5.67,5.67,5.67
-11.10,1.25,-0.08,2.87,2.59,2.59
-11.06,1.06,-0.14,1.61,1.12,0.98
-10.68,1.37,-0.16,-0.35,-0.35,-1.12
-10.27,1.64,-0.20,-2.52,-2.52,-2.52
-9.87,2.06,-0.45,-4.20,-4.20,-4.20
-10.02,2.29,-0.50,-3.78,-3.78,-3.36
-10.48,2.28,-0.46,1.61,1.61,1.61
-10.71,2.80,-0.51,4.13,4.13,4.13
-11.02,3.53,-0.80,3.50,3.50,3.22
-11.37,3.67,-0.91,0.84,0.84,0.49
-11.85,3.47,-0.82,-1.26,-1.82,-2.31
-12.01,3.54,-0.84,-5.81,-5.81,-5.81
-12.11,3.59,-1.09,-11.20,-11.20,-11.48
-12.14,3.19,-1.12,-12.60,-12.60,-12.60
-12.00,2.58,-1.11,-10.29,-10.29,-10.29
-11.82,2.24,-1.11,-4.76,-3.22,-3.22
-11.69,2.13,-1.18,2.94,2.94,3.85
-11.37,2.17,-1.17,10.29,10.29,10.29
-11.14,2.39,-1.09,12.81,12.81,12.81
-11.26,2.56,-0.94,13.86,13.86,13.86
-11.36,2.81,-0.68,12.39,12.39,12.39
-11.50,2.97,-0.52,9.38,9.38,9.38
-11.37,3.13,-0.40,5.81,5.81,5.81
-11.25,3.05,-0.24,1.47,1.47,1.05
-11.30,2.81,-0.12,-0.63,-0.63,-0.63
-11.61,2.54,-0.12,-0.35,-0.21,-0.21
-12.04,2.59,-0.16,0.56,0.56,0.56
-12.42,2.75,-0.30,0.42,0.42,0.42
-12.47,2.67,-0.37,-0.91,-0.91,-1.33
-12.48,2.39,-0.45,-3.92,-3.92,-3.92
-12.42,1.91,-0.40,-4.83,-4.90,-4.90
-12.23,1.47,-0.36,-4.76,-4.76,-4.76
-12.21,1.31,-0.26,-3.99,-3.99,-3.71
-12.02,1.17,-0.20,-3.50,-3.50,-3.50
-11.93,0.81,-0.04,-2.87,-2.73,-2.73
-11.79,0.23,0.06,-2.31,-2.45,-2.45
-11.61,0.05,0.10,-3.64,-3.64,-3.78
-11.67,-0.28,0.18,-7.07,-7.07,-7.07
-11.57,-0.60,0.17,-11.20,-11.20,-11.20
-11.10,-1.13,0.14,-15.26,-15.26,-15.26
-10.62,-1.61,0.11,-20.16,-20.16,-20.16
-10.16,-2.17,0.11,-21.84,-21.84,-22.26
-9.31,-2.83,0.10,-23.59,-23.66,-23.66
-8.62,-3.19,0.17,-26.39,-26.74,-26.74
-7.64,-3.65,0.21,-29.33,-29.68,-29.68
-6.79,-4.18,0.25,-31.43,-31.43,-31.43
-6.28,-4.58,0.30,-31.43,-31.43,-31.57
-5.77,-4.90,0.35,-31.22,-31.22,-31.22
-4.62,-5.71,0.39,-32.55,-32.55,-32.62
-4.48,-6.17,0.30,-32.83,-32.83,-32.76
-4.20,-6.46,0.23,-33.46,-33.46,-33.46
-3.94,-6.86,0.18,-34.02,-34.02,-34.02
-3.56,-7.13,0.10,-35.07,-35.07,-35.35
-2.88,-7.50,0.07,-36.05,-36.05,-36.26
-1.51,-7.90,-0.07,-36.82,-36.82,-36.82
-0.78,-8.21,-0.16,-36.05,-35.84,-35.84
-0.30,-8.34,-0.33,-34.09,-33.95,-33.95
0.29,-8.48,-0.56,-33.04,-32.90,-32.90
0.59,-8.46,-0.73,-32.13,-32.13,-32.13
1.26,-8.20,-0.76,-32.62,-32.76,-32.76
1.66,-8.40,-0.81,-31.78,-31.78,-31.78
2.03,-8.39,-0.89,-29.82,-29.82,-29.82
2.50,-8.29,-0.90,-28.49,-28.49,-28.49
2.92,-7.73,-0.95,-29.40,-29.40,-29.40
3.09,-7.55,-1.06,-31.15,-31.15,-31.15
3.72,-7.21,-1.35,-33.04,-33.46,-33.46
4.97,-7.19,-1.63,-33.46,-33.46,-33.46
5.94,-7.32,-1.73,-28.42,-28.42,-28.42
6.84,-6.71,-1.82,-24.29,-24.29,-24.29
7.65,-5.85,-1.97,-23.45,-23.59,-23.80
8.46,-5.42,-2.10,-24.71,-24.78,-24.78
8.88,-5.35,-2.21,-23.59,-23.59,-23.24
8.31,-5.40,-2.18,-19.88,-19.88,-19.88
7.25,-5.30,-2.24,-17.22,-17.22,-16.94
6.02,-5.29,-2.33,-17.36,-17.36,-17.36
5.23,-5.63,-2.36,-17.64,-17.64,-17.64
4.86,-6.32,-2.37,-13.37,-13.37,-13.37
4.38,-7.15,-2.42,-7.63,-7.63,-5.25
3.82,-7.75,-2.45,1.89,1.89,1.89
3.70,-7.98,-2.42,12.11,12.11,12.11
3.97,-8.17,-2.31,20.02,20.02,20.02
3.80,-8.64,-2.12,29.54,29.54,29.54
2.46,-9.05,-1.99,38.64,38.64,38.64
1.51,-8.78,-1.85,44.17,44.17,44.17
1.44,-8.67,-1.64,44.38,44.38,44.38
1.55,-8.89,-1.44,44.87,45.08,45.08
1.10,-8.98,-1.13,46.55,46.55,46.83
0.30,-8.28,-0.96,43.33,43.33,43.33
-0.52,-8.00,-0.86,31.15,31.15,31.15
-0.73,-8.55,-0.61,25.34,25.34,25.34
-0.71,-9.01,-0.41,24.36,24.08,24.08
-0.98,-8.69,-0.41,22.75,21.98,21.98
-1.89,-8.75,-0.35,20.02,19.53,19.53
-2.54,-8.99,-0.29,18.48,18.48,18.48
-3.13,-9.17,-0.18,19.11,19.11,19.11
-3.40,-8.87,-0.13,18.41,18.41,17.57
-3.85,-8.55,-0.22,14.77,14.77,14.77
-3.90,-8.52,-0.18,9.87,9.87,9.87
-4.05,-8.64,-0.11,8.05,8.05,8.05
-4.64,-8.77,0.01,8.33,8.33,8.33
-5.25,-8.23,0.07,7.00,6.51,6.51
-5.44,-7.90,0.00,3.22,3.22,2.03
-5.24,-8.21,0.04,2.73,2.73,2.73
-5.56,-8.32,0.16,7.56,7.56,7.56
-5.94,-7.61,0.07,8.19,8.19,8.19
-6.07,-6.98,-0.18,3.64,3.15,3.15
-5.92,-6.82,-0.25,0.84,0.49,0.49
-6.82,-7.27,-0.09,3.36,3.36,3.99
-7.46,-7.01,-0.16,7.28,7.28,7.42
-7.79,-6.20,-0.23,6.44,6.44,5.95
-7.56,-5.61,-0.42,0.63,0.63,0.42
-7.27,-5.93,-0.30,2.10,2.10,2.66
-7.70,-5.92,-0.20,8.05,8.05,8.96
-8.39,-5.20,-0.21,14.14,14.14,14.49
-8.53,-4.13,-0.35,12.11,12.11,12.11
-7.94,-3.20,-0.57,1.82,0.00,0.00
-7.65,-4.00,-0.45,-1.40,-1.40,-0.84
-8.41,-3.74,-0.40,3.78,3.78,3.78
-9.56,-3.39,-0.17,10.15,10.57,10.57
-9.33,-1.11,-0.66,-0.56,-1.12,-1.12
-9.27,-1.55,-0.32,-0.28,0.42,0.42
-9.90,-1.41,-0.04,6.09,6.93,6.93
-10.74,-0.51,-0.03,10.57,10.57,10.57
-11.25,0.24,-0.30,9.59,9.59,9.59
-11.61,0.73,-0.40,6.30,5.32,5.32
-12.05,0.65,-0.31,2.87,2.87,2.87
-12.01,0.93,-0.30,-1.47,-1.47,-1.47
-11.68,1.00,-0.32,-5.39,-5.39,-5.39
-11.20,1.01,-0.40,-8.40,-8.40,-8.40
-10.73,0.84,-0.47,-8.96,-8.96,-8.96
-10.19,1.03,-0.50,-7.98,-7.91,-7.91
-9.90,1.36,-0.48,-5.95,-5.32,-5.32
-9.83,1.92,-0.45,-4.27,-4.27,-3.99
-10.35,2.44,-0.49,-3.29,-3.29,-3.29
-11.04,2.49,-0.56,0.35,0.35,0.35
-11.47,2.67,-0.54,3.08,3.08,3.08
-11.50,3.01,-0.68,2.59,2.31,2.31
-11.72,3.20,-0.84,-17.78,-0.28,-0.28
-12.10,2.66,-0.83,-2.59,-2.52,-2.52
-12.39,2.37,-0.75,-2.66,-2.73,-2.73
-12.53,2.27,-0.67,-2.03,-2.03,-1.75
-12.59,2.28,-0.65,-1.61,-1.40,-1.40
-12.26,2.28,-0.66,-1.26,-0.98,-0.91
-11.89,2.07,-0.57,1.12,1.12,1.12
-11.59,1.85,-0.46,5.18,5.18,5.18
-11.58,1.83,-0.39,10.71,11.20,11.20
-11.78,2.06,-0.29,13.86,14.91,14.91
-11.91,2.35,-0.30,15.68,15.68,15.19
-12.08,2.76,-0.26,12.11,12.11,11.69
-12.28,2.73,-0.22,6.65,6.65,5.88
-12.33,2.66,-0.15,0.49,0.49,-0.28
-12.33,2.49,-0.09,-5.11,-5.11,-5.74
-12.23,2.30,-0.02,-8.96,-8.96,-9.24
-12.07,1.90,0.02,-9.73,-9.66,-9.59
-11.70,1.46,0.08,-7.49,-7.49,-7.49
-11.26,1.14,0.13,-3.85,-3.85,-3.85
-11.16,0.94,0.11,-2.59,-2.45,-2.45
-11.38,0.83,0.08,-2.59,-2.59,-2.66
-11.41,0.69,0.06,-4.76,-4.76,-4.76
-11.27,0.32,0.07,-7.07,-7.07,-7.07
-10.78,-0.07,0.09,-10.92,-10.92,-10.92
-10.24,-0.62,0.15,-12.25,-12.25,-12.25
-9.79,-1.12,0.16,-12.11,-12.04,-12.04
-9.47,-1.43,0.11,-12.32,-12.32,-12.46
-9.47,-1.69,0.04,-13.93,-13.93,-13.93
-9.32,-1.97,0.03,-15.68,-16.31,-16.31
-9.40,-2.49,0.05,-18.20,-18.20,-18.69
-9.27,-3.16,0.03,-19.81,-19.81,-19.81
-8.83,-3.91,0.04,-21.07,-21.07,-21.07
-7.41,-5.39,-0.01,-22.12,-21.91,-21.91
-7.31,-5.93,0.02,-19.95,-19.67,-19.67
-6.75,-6.31,0.01,-18.20,-17.71,-17.71
-5.80,-6.34,-0.01,-17.71,-17.71,-17.71
-4.95,-6.24,-0.09,-21.14,-21.14,-21.14
-4.26,-6.52,-0.11,-23.10,-23.45,-23.45
-4.11,-7.11,-0.07,-23.03,-23.03,-22.89
-3.95,-7.38,-0.04,-22.05,-22.05,-22.05
-3.99,-7.64,-0.06,-21.14,-20.86,-20.86
-3.31,-7.69,-0.12,-20.65,-20.44,-20.44
-2.42,-7.86,-0.17,-20.37,-20.37,-20.37
-1.71,-7.89,-0.23,-20.51,-20.51,-20.51
-1.21,-7.98,-0.29,-20.86,-20.86,-21.21
-0.80,-7.95,-0.33,-22.40,-22.40,-22.40
0.16,-7.91,-0.49,-28.35,-28.35,-28.63
0.55,-8.08,-0.56,-30.17,-30.17,-30.17
0.91,-8.11,-0.91,-32.34,-32.34,-32.34
1.42,-8.09,-1.21,-35.28,-35.28,-35.28
2.12,-8.35,-1.34,-36.33,-36.19,-36.19
3.19,-8.57,-1.45,-35.07,-34.79,-34.09
4.00,-8.43,-1.52,-31.85,-31.43,-30.80
4.41,-7.93,-1.78,-29.12,-28.98,-28.98
5.20,-8.01,-1.90,-26.46,-26.46,-25.83
5.96,-8.71,-1.83,-21.07,-18.69,-0.77
5.82,-8.34,-1.78,-11.20,-10.36,-10.36
5.40,-7.48,-1.85,-9.38,-9.38,-9.87
4.94,-7.23,-1.90,-12.60,-12.60,-14.56
4.19,-7.37,-1.92,-17.64,-17.64,-18.06
3.20,-7.69,-1.84,-21.63,-21.63,-21.91
2.65,-7.95,-1.76,-22.96,-22.96,-22.96
2.75,-8.26,-1.78,-21.35,-21.35,-21.35
3.12,-8.82,-1.76,-16.66,-16.66,-16.66
3.50,-9.17,-1.72,-5.25,-5.25,-5.25
3.85,-9.07,-1.83,4.34,4.34,4.34
4.22,-8.76,-1.94,11.55,11.55,11.55
4.39,-8.37,-2.10,17.22,17.22,17.22
4.32,-8.17,-2.16,21.14,21.56,21.56
3.75,-8.04,-2.15,23.94,23.94,23.94
3.36,-7.66,-2.07,22.19,22.19,21.91
3.29,-7.56,-2.07,19.67,19.04,18.76
3.42,-7.77,-1.95,17.85,17.78,17.78
3.18,-8.00,-1.84,17.64,17.64,17.64
2.53,-7.92,-1.73,17.22,17.22,17.22
1.68,-7.87,-1.68,15.33,15.33,15.33
0.20,-8.61,-1.18,20.51,20.79,20.79
-0.44,-8.14,-1.06,21.49,21.49,21.21
-0.80,-7.18,-1.16,16.94,16.94,15.89
-0.60,-7.45,-0.95,11.62,11.62,11.62
-0.82,-8.01,-0.80,13.51,14.49,14.49
-1.83,-7.63,-0.69,16.31,16.31,15.89
-2.62,-6.14,-0.88,7.42,7.42,7.42
-3.14,-5.44,-1.19,-7.84,-7.84,-7.84
-3.46,-6.45,-0.95,-13.02,-12.95,-12.95
-3.76,-7.67,-0.77,-9.45,-9.45,-7.07
-5.09,-8.07,-0.67,1.12,1.12,1.12
-6.16,-7.71,-0.80,11.69,11.69,11.69
-7.20,-7.25,-1.09,16.66,16.66,16.66
-8.18,-7.25,-1.12,21.42,22.33,22.33
-8.60,-7.29,-0.92,30.94,30.94,31.85
-9.29,-6.46,-0.81,33.67,33.67,32.97
-8.75,-5.30,-0.94,29.54,29.54,26.46
-7.43,-4.67,-1.03,19.39,19.39,19.39
-7.60,-4.55,-0.88,14.28,14.28,14.28
-7.99,-4.23,-0.75,11.83,11.83,11.83
-9.28,-4.14,-0.58,12.39,12.39,12.39
-10.04,-3.36,-0.70,11.62,10.92,10.92
-10.91,-2.77,-0.88,8.40,8.40,8.40
-11.84,-2.98,-0.53,12.18,12.18,12.18
-12.48,-3.35,-0.08,18.41,19.46,19.46
-12.17,-2.70,-0.11,24.78,24.78,24.57
-10.62,-1.42,-0.44,19.81,19.81,18.76
-9.84,-1.14,-0.45,12.46,11.76,11.76
-9.49,-1.55,-0.19,13.79,14.49,14.49
-9.63,-0.94,-0.06,20.44,20.44,20.44
-9.73,0.14,-0.22,21.07,20.51,20.51
-9.60,1.37,-0.45,14.56,13.23,13.23
-9.45,2.03,-0.68,-0.21,-0.21,-1.26
-9.74,1.68,-0.61,-6.23,-6.23,-6.65
-10.23,1.71,-0.56,-7.70,-7.70,-7.70
-10.25,2.23,-0.79,-9.73,-9.73,-9.73
-10.10,2.98,-0.94,-14.84,-14.84,-14.84
-11.09,2.83,-0.89,-17.71,-17.71,-17.71
-11.96,2.52,-0.89,-14.00,-14.00,-13.51
-11.81,3.14,-1.08,-12.81,-12.81,-12.81
-11.39,3.51,-1.20,-14.63,-15.54,-15.54
-11.37,3.35,-1.25,-16.80,-16.80,-16.73
-10.85,2.39,-1.22,-7.91,-6.16,-6.16
-10.20,2.39,-1.25,-0.84,-0.84,1.05
-9.82,2.72,-1.21,6.86,6.86,6.86
-9.76,2.97,-1.10,16.10,16.10,16.10
-9.93,3.19,-1.06,21.56,21.56,21.56
-10.28,3.65,-1.15,23.45,23.52,23.52
-10.37,4.38,-1.24,21.00,21.00,20.30
-10.39,4.88,-1.40,13.72,11.69,11.69
-10.68,5.05,-1.47,3.92,2.87,2.87
-10.69,4.78,-1.55,-7.77,-7.77,-8.89
-10.71,4.52,-1.56,-14.98,-14.98,-15.75
-11.00,3.70,-1.48,-20.51,-20.51,-20.51
-11.37,3.17,-1.38,-15.61,-15.61,-15.61
-11.39,2.91,-1.26,-6.44,-6.44,-6.44
-11.43,2.90,-1.26,0.56,0.56,0.56
-11.42,2.89,-1.29,6.16,6.16,6.16
-11.56,2.92,-1.34,12.46,13.23,13.23
-11.81,2.99,-1.32,18.13,18.69,18.69
-11.90,3.00,-1.19,22.26,22.61,22.61
-11.83,3.17,-1.13,23.66,23.66,23.66
-11.73,3.42,-1.07,20.16,20.16,19.60
-11.73,3.48,-0.97,16.03,14.35,13.44
-11.84,3.15,-0.80,8.89,8.19,8.19
-12.04,2.66,-0.64,3.92,3.36,3.36
-12.17,2.27,-0.42,0.07,0.07,-0.07
-12.33,1.68,-0.30,-0.70,-0.70,-0.70
-12.31,1.20,-0.23,0.56,0.98,0.98
-12.03,0.76,-0.15,1.89,1.89,2.03
-11.58,0.45,-0.12,1.33,1.33,1.33
-11.32,0.19,-0.06,-0.84,-0.84,-0.84
-10.34,-0.17,0.09,-7.84,-9.52,-9.52
-9.89,-0.50,0.19,-14.70,-14.70,-16.31
-10.04,-1.34,0.35,-20.86,-20.86,-20.86
-9.32,-1.86,0.33,-25.76,-25.76,-26.25
-8.71,-2.33,0.30,-30.80,-31.43,-31.43
-8.28,-2.92,0.25,-35.63,-36.05,-36.05
-8.00,-3.72,0.34,-38.15,-38.15,-38.15
-7.53,-4.43,0.25,-38.01,-38.01,-37.80
-6.78,-4.92,0.22,-36.19,-36.19,-35.77
-5.62,-5.36,0.22,-33.04,-33.04,-33.04
-4.77,-6.15,0.33,-28.35,-28.35,-27.51
-4.57,-6.43,0.23,-22.82,-22.82,-22.19
-4.47,-6.40,0.21,-20.79,-20.79,-20.65
-4.60,-6.48,0.18,-22.61,-22.61,-22.61
-4.58,-6.52,0.06,-25.48,-26.74,-26.74
-4.19,-6.79,0.01,-30.94,-30.94,-30.94
-3.65,-7.28,-0.06,-35.35,-35.35,-35.35
-2.82,-7.60,-0.13,-37.17,-37.17,-37.38
-1.87,-7.74,-0.31,-38.85,-38.85,-39.13
-0.75,-7.98,-0.54,-40.04,-40.04,-40.04
0.01,-8.31,-0.64,-39.48,-39.48,-39.48
0.51,-8.38,-0.78,-38.50,-38.36,-38.36
0.88,-8.66,-0.84,-36.47,-36.05,-36.05
1.16,-9.01,-0.87,-33.46,-31.57,-31.57
1.43,-9.27,-0.92,-28.00,-27.37,-25.55
1.59,-9.21,-1.13,-21.07,-21.07,-20.51
2.09,-9.48,-1.26,-13.23,-13.23,-13.23
2.42,-9.48,-1.34,-7.77,-7.77,-7.77
2.41,-8.43,-1.53,-5.39,-5.39,-5.39
2.30,-7.96,-1.65,-9.45,-9.45,-9.45
2.62,-7.57,-1.79,-17.85,-17.85,-17.85
3.89,-7.43,-1.79,-27.30,-28.14,-28.14
5.12,-7.21,-1.88,-33.04,-33.04,-33.04
5.81,-7.04,-1.90,-37.52,-37.52,-37.52
6.14,-6.98,-1.99,-40.46,-40.46,-40.46
6.58,-6.57,-2.14,-42.28,-42.28,-42.56
6.95,-6.50,-2.21,-43.54,-43.54,-43.54
7.09,-6.79,-2.18,-38.78,-38.78,-38.78
6.74,-7.11,-2.04,-29.12,-29.12,-29.12
5.89,-7.05,-1.98,-18.34,-18.34,-18.34
4.60,-6.83,-2.07,-12.53,-12.53,-12.53
3.50,-7.06,-2.19,-7.00,-7.00,-7.00
3.15,-7.44,-2.24,-3.22,-1.82,-1.82
3.56,-7.86,-2.27,3.71,3.71,4.69
3.89,-8.21,-2.24,12.81,12.81,12.81
3.88,-8.42,-2.22,19.11,19.11,19.11
3.73,-8.44,-2.21,28.84,28.84,28.84
3.37,-8.77,-2.12,35.70,36.75,36.75
2.37,-8.89,-2.05,41.44,43.75,43.75
1.23,-8.62,-1.93,46.27,46.62,46.62
0.77,-8.80,-1.38,42.56,42.56,42.84
0.39,-8.96,-1.14,46.62,46.62,46.62
-0.51,-8.59,-0.96,47.60,47.60,47.60
-1.08,-8.03,-0.89,41.65,40.53,40.53
-1.38,-7.59,-0.85,33.18,33.18,33.18
-1.50,-8.08,-0.54,28.07,27.72,27.72
-2.24,-8.58,-0.25,28.77,29.05,29.05
-2.98,-8.24,-0.15,30.24,30.24,30.17
-3.46,-7.37,-0.18,25.62,25.62,24.71
-3.82,-7.33,-0.12,21.00,21.00,20.86
-4.43,-8.01,0.11,22.68,22.68,23.45
-5.18,-8.08,0.33,28.77,28.77,29.54
-5.64,-7.17,0.31,29.19,29.19,28.49
-5.52,-6.17,0.00,20.37,20.37,19.11
-6.13,-6.46,0.08,13.37,13.37,13.16
-6.82,-6.90,0.26,14.21,14.21,14.56
-7.84,-7.22,0.53,19.53,19.53,19.53
-8.17,-6.19,0.34,19.74,19.74,19.74
-7.86,-5.19,0.00,12.32,10.15,10.15
-8.62,-5.75,0.17,8.75,8.75,10.29
-8.88,-6.53,0.48,16.94,16.94,16.94
-9.07,-6.10,0.58,25.27,25.27,25.27
-8.98,-4.97,0.31,25.83,25.83,25.83
-8.93,-3.85,0.07,19.60,19.60,19.60
-9.45,-3.69,0.24,18.83,18.83,18.83
-9.90,-3.92,0.50,23.03,24.29,24.29
-10.02,-3.38,0.74,26.74,26.39,26.39
-9.30,-2.54,0.53,22.19,22.19,19.32
-8.19,-1.37,-0.09,5.46,3.36,3.36
-8.57,-1.04,-0.09,-12.39,-12.39,-12.39
-9.45,-2.04,0.21,-12.74,-12.74,-12.74
-9.65,-1.67,0.13,-7.98,-7.56,-7.56
-9.54,-0.95,-0.08,-6.58,-6.58,-6.58
-9.43,-0.21,-0.43,-9.45,-9.45,-9.80
-9.95,-0.01,-0.35,-10.01,-9.24,-8.68
-10.76,-0.26,-0.28,-4.48,-2.52,-1.47
-11.28,0.46,-0.27,3.92,3.92,3.92
-11.34,1.31,-0.52,4.69,4.34,4.34
-11.10,1.88,-0.56,1.61,0.98,0.98
-11.10,1.90,-0.34,-2.80,-2.80,-3.08
-11.18,1.76,-0.26,-3.78,-3.78,-3.78
-11.22,1.78,-0.16,-2.59,-2.59,-2.59
-10.83,1.98,-0.22,-1.40,-1.40,-1.05
-10.49,1.97,-0.15,2.38,2.38,2.38
-10.63,1.77,-0.12,7.91,7.91,7.91
-11.11,2.09,-0.19,21.00,21.77,21.77
-11.44,2.54,-0.31,22.40,22.40,22.12
-11.86,2.79,-0.38,19.39,18.90,18.90
-11.87,2.90,-0.49,12.25,12.25,11.41
-11.65,2.80,-0.53,6.86,5.18,4.48
-11.27,2.39,-0.49,0.84,0.35,0.35
-11.13,1.82,-0.33,0.42,0.42,0.77
-11.05,1.55,-0.27,3.85,3.85,4.55
-11.08,1.60,-0.19,9.94,9.94,9.94
-11.37,2.00,-0.20,12.46,12.95,12.95
-11.56,2.51,-0.23,13.23,13.02,13.02
-11.63,2.65,-0.23,10.43,10.43,10.15
-11.88,2.73,-0.22,7.35,7.35,6.93
-11.92,2.81,-0.27,1.75,1.75,1.75
-11.93,2.82,-0.24,-2.59,-2.59,-2.59
-12.01,2.57,-0.23,-3.92,-3.92,-4.06
-11.92,2.27,-0.27,-3.15,-3.15,-3.15
-11.81,1.91,-0.31,0.07,0.56,0.56
-11.95,1.77,-0.36,3.43,3.99,3.99
-12.18,1.70,-0.44,5.39,5.53,5.53
-12.57,1.68,-0.45,5.67,5.67,5.74
-13.19,1.56,-0.40,5.74,5.74,5.81
-13.68,1.53,-0.38,5.60,5.60,5.60
-13.57,1.23,-0.34,4.20,4.20,4.06
-13.18,0.93,-0.28,2.66,2.66,2.59
-12.38,0.45,-0.27,1.19,1.19,1.19
-11.27,0.13,-0.30,-3.15,-3.15,-3.15
-10.98,-0.27,-0.21,-7.91,-8.26,-8.26
-10.58,-0.56,-0.07,-10.92,-12.53,-12.53
-9.87,-0.84,0.02,-17.01,-17.01,-17.01
-9.23,-1.36,0.15,-21.14,-21.77,-22.96
-8.65,-2.01,0.26,-26.88,-27.37,-27.37
-8.28,-2.58,0.33,-31.22,-31.22,-31.64
-8.31,-2.99,0.39,-34.02,-34.02,-34.44
-8.44,-3.69,0.41,-35.98,-35.98,-35.98
-8.29,-4.24,0.47,-35.84,-35.63,-35.63
-7.87,-4.94,0.47,-34.30,-34.30,-34.02
-7.16,-5.75,0.33,-29.96,-29.61,-29.61
-6.69,-5.96,0.26,-28.77,-28.42,-28.42
-6.17,-6.22,0.17,-28.14,-28.14,-28.35
-5.68,-6.39,0.10,-28.56,-28.56,-29.05
-3.21,-6.97,-0.21,-36.33,-36.33,-36.68
-2.41,-7.15,-0.33,-40.67,-40.67,-41.09
-1.33,-7.13,-0.45,-44.17,-44.17,-44.52
0.01,-7.14,-0.50,-46.55,-46.55,-46.83
0.36,-7.26,-0.59,-48.02,-48.02,-48.02
0.40,-7.34,-0.69,-48.58,-49.07,-49.07
1.21,-7.20,-0.97,-51.52,-51.52,-52.57
4.16,-7.09,-1.53,-61.46,-62.02,-62.02
4.55,-7.13,-1.64,-62.79,-62.79,-62.86
4.80,-7.22,-1.79,-61.81,-61.81,-61.81
5.03,-6.92,-2.28,-60.48,-60.48,-60.48
5.21,-6.49,-2.56,-60.62,-60.62,-60.62
5.57,-6.25,-2.92,-60.62,-60.62,-60.62
6.43,-6.45,-3.09,-57.54,-57.54,-57.54
7.14,-6.48,-3.21,-47.32,-47.32,-47.32
7.45,-6.43,-3.19,-36.19,-36.19,-36.19
7.06,-6.49,-3.21,-24.85,-24.85,-24.85
6.70,-6.44,-3.32,-16.45,-16.45,-16.45
6.39,-6.68,-3.26,-6.58,-6.58,-6.58
6.04,-6.75,-3.12,6.09,6.09,6.09
5.63,-6.49,-3.01,12.11,12.81,12.81
5.34,-6.35,-3.24,17.22,17.22,17.78
5.11,-6.73,-3.17,20.30,21.35,21.84
4.88,-7.10,-3.18,24.85,24.85,27.16
4.73,-7.54,-3.08,31.01,31.01,32.41
4.18,-7.76,-3.04,37.38,37.38,37.38
3.59,-7.55,-3.03,38.50,38.15,38.15
3.16,-7.65,-2.95,36.75,36.68,36.68
3.07,-8.47,-2.68,38.64,38.64,40.60
2.80,-9.01,-2.46,44.87,44.87,47.95
1.76,-9.12,-2.06,54.81,54.81,54.81
1.60,-8.34,-1.95,58.38,58.52,58.52
1.73,-7.92,-1.70,58.03,58.03,57.75
1.41,-7.56,-1.49,55.51,55.51,55.51
0.42,-7.49,-1.12,49.56,49.56,49.56
-0.48,-7.02,-0.99,44.31,44.31,43.26
-0.45,-6.42,-1.01,29.61,29.61,29.61
-0.39,-6.67,-0.96,22.54,21.35,21.35
-1.41,-7.74,-0.57,22.33,22.96,22.96
-3.02,-7.77,-0.56,28.49,28.49,28.98
-4.25,-7.77,-0.60,31.50,31.50,32.27
-6.65,-8.36,-0.48,55.86,55.86,55.86
-7.81,-6.98,-0.66,65.94,65.94,65.94
-7.51,-6.49,-0.51,66.29,66.22,66.22
-6.62,-6.14,-0.33,66.57,66.57,66.50
-5.61,-5.23,-0.14,65.73,65.73,65.31
-5.75,-4.98,0.42,65.03,65.03,64.40
-6.83,-4.45,0.92,62.30,62.30,60.27
-8.09,-3.58,1.11,53.55,53.55,51.52
-8.71,-2.10,0.72,24.43,24.43,21.07
-9.27,-3.59,0.89,7.77,7.77,3.92
-10.53,-4.32,1.58,6.02,6.02,6.02
-11.09,-4.01,1.46,12.25,12.25,12.25
-11.21,-3.01,1.18,8.40,7.56,7.56
-10.24,-2.10,0.75,-1.40,-1.40,-1.40
-9.45,-3.05,0.89,-4.41,-3.43,-3.43
-9.16,-3.43,1.14,7.70,7.70,7.70
-9.28,-2.62,0.97,20.37,21.14,21.14
-9.35,-1.27,0.58,22.26,20.51,20.51
-9.49,0.42,0.07,12.11,12.11,12.11
-10.36,0.15,0.36,9.45,9.45,9.45
-10.60,0.56,0.32,10.43,10.22,10.22
-11.00,1.63,0.12,7.07,7.07,5.32
-10.83,2.54,-0.29,-3.08,-4.62,-4.62
-11.09,2.88,-0.42,-15.54,-15.54,-16.03
-11.10,2.03,-0.33,16.31,17.29,17.29
-11.32,3.13,-0.70,22.47,22.47,22.40
-11.59,3.45,-0.65,20.30,20.30,19.95
-11.43,4.30,-0.49,9.03,8.05,8.05
-11.50,4.14,-0.40,0.00,-17.92,-0.70
-11.35,3.78,-0.34,-3.50,-4.41,-4.76
-11.04,3.61,-0.30,-5.95,-6.30,-6.51
-10.96,3.56,-0.31,-6.58,-6.58,-6.44
-10.99,3.44,-0.36,-6.02,-6.02,-6.09
-10.94,3.44,-0.44,-5.67,-5.60,-5.60
-11.03,3.42,-0.46,-5.32,-5.32,-5.25
-11.25,3.24,-0.51,-3.85,-3.85,-3.71
-11.42,3.27,-0.64,-2.24,-2.24,-2.24
-11.80,3.42,-0.67,-1.12,-1.12,-1.12
-12.23,3.46,-0.72,-0.42,-0.14,-0.14
-12.46,3.57,-0.71,0.70,0.70,0.70
-12.27,3.50,-0.72,1.68,1.68,1.68
-11.94,3.13,-0.77,3.92,3.92,3.92
-11.83,3.18,-0.57,6.51,6.51,6.51
-11.92,3.31,-0.48,5.46,5.46,4.97
-12.01,3.43,-0.36,2.31,2.31,2.31
-11.93,3.14,-0.33,-3.64,-3.64,-3.64
-11.57,2.75,-0.29,-7.14,-8.40,-8.40
-11.40,2.18,-0.25,-10.92,-11.55,-11.55
-11.36,1.69,-0.21,-12.95,-12.95,-13.37
-11.33,1.30,-0.17,-13.93,-13.93,-13.93
-11.33,0.55,-0.07,-13.58,-13.44,-13.44
-11.10,0.24,-0.09,-13.30,-13.44,-13.44
-10.75,0.00,-0.11,-14.28,-14.42,-14.42
-10.64,-0.41,-0.06,-15.47,-15.47,-15.54
-10.49,-0.88,-0.02,-16.10,-16.10,-16.17
-10.14,-1.25,0.04,-17.43,-17.78,-17.78
-9.87,-1.74,0.03,-20.09,-20.09,-20.37
-9.50,-2.37,0.09,-23.45,-23.45,-23.45
-7.66,-3.87,-0.01,-34.37,-34.37,-34.37
-7.26,-4.57,0.00,-35.56,-35.56,-35.56
-7.09,-5.21,0.06,-34.51,-34.30,-34.30
-6.93,-5.84,0.11,-30.73,-30.73,-30.73
-6.28,-6.10,0.12,-28.14,-28.14,-28.14
-5.52,-6.20,-0.07,-28.42,-28.70,-28.70
-4.91,-6.33,-0.16,-31.36,-31.92,-31.92
-4.20,-6.45,-0.29,-34.79,-36.54,-36.54
-3.46,-6.95,-0.35,-39.06,-40.18,-40.18
-3.03,-7.58,-0.47,-41.30,-41.30,-41.30
-2.52,-7.77,-0.59,-41.37,-41.65,-41.65
-2.02,-7.95,-0.74,-42.21,-42.21,-42.56
-1.59,-8.01,-0.87,-43.12,-43.47,-43.68
-1.23,-8.05,-1.05,-44.24,-44.24,-44.59
-0.52,-8.17,-1.26,-45.29,-45.29,-45.29
-0.14,-8.35,-1.34,-44.17,-44.17,-44.17
0.26,-8.60,-1.32,-41.93,-41.93,-41.93
0.83,-8.83,-1.23,-18.13,-35.35,-35.35
1.39,-8.44,-1.23,-32.13,-32.13,-31.64
1.74,-8.33,-1.29,-28.21,-28.21,-28.21
2.14,-7.97,-1.38,-26.81,-26.74,-26.74
3.44,-7.30,-1.49,-27.51,-27.51,-27.51
4.51,-6.66,-1.72,-30.10,-30.10,-30.52
5.46,-6.13,-1.85,-33.88,-33.88,-33.88
6.38,-5.39,-2.11,-39.20,-39.20,-40.95
7.31,-4.84,-2.47,-46.27,-46.27,-46.27
8.16,-4.96,-2.85,-51.52,-51.52,-51.52
8.65,-5.38,-2.96,-48.02,-48.02,-48.02
8.59,-5.11,-2.94,-41.09,-41.09,-41.09
7.81,-4.90,-3.02,-37.31,-36.68,-36.68
7.04,-5.02,-3.19,-32.13,-30.59,-30.59
6.31,-5.41,-3.31,-25.13,-25.13,-23.10
5.34,-5.94,-3.29,-15.05,-13.93,-13.93
4.69,-6.10,-3.18,-3.64,-3.64,-2.73
4.09,-6.30,-3.22,1.61,3.29,4.06
4.25,-6.65,-3.17,10.08,10.08,10.08
4.87,-7.25,-2.94,20.09,21.49,21.49
4.98,-7.81,-2.84,29.12,32.41,34.09
4.42,-7.94,-2.63,42.14,44.87,45.99
3.23,-7.19,-2.57,50.82,50.82,50.82
2.76,-6.57,-2.52,48.30,47.81,47.81
2.74,-7.28,-2.21,46.55,46.55,46.76
2.48,-7.56,-1.86,48.37,48.37,48.37
1.45,-7.05,-1.66,48.51,48.51,48.51
-0.05,-6.78,-1.52,43.96,43.96,42.49
-0.81,-7.37,-1.52,40.39,40.39,40.39
-1.29,-8.24,-1.09,43.96,43.96,43.96
-2.09,-8.41,-0.79,46.76,46.76,47.25
-2.88,-8.12,-0.64,48.93,48.93,49.00
-3.53,-7.96,-0.67,50.54,50.54,50.96
-4.08,-8.01,-0.61,54.32,55.37,55.37
-4.94,-7.26,-0.43,56.00,56.00,55.44
-4.50,-5.72,-0.43,43.82,43.82,41.30
-3.78,-4.52,-0.70,11.90,11.90,11.90
-3.86,-4.50,-0.69,-7.98,-7.98,-7.98
-6.27,-5.69,-0.60,-11.34,-11.20,-11.20
-9.09,-5.56,-0.55,-12.04,-12.04,-13.16
-10.76,-5.16,-0.51,-18.76,-18.76,-18.76
-12.42,-6.16,-0.70,-23.24,-22.40,-22.40
-11.94,-6.62,-0.45,21.42,21.42,21.42
-10.15,-5.49,-0.70,27.16,27.51,27.51
-8.20,-4.97,-0.79,28.98,29.68,29.68
-7.08,-4.15,-0.90,29.68,29.68,29.68
-7.37,-3.19,-0.71,26.39,26.39,25.90
-8.36,-2.66,-0.62,20.16,20.16,20.16
-9.57,-1.62,-0.78,11.69,11.69,11.69
-10.56,-1.21,-1.08,-2.10,-3.43,-3.43
-11.05,-1.04,-1.36,-10.92,-11.90,-11.90
-11.59,-1.45,-1.06,-16.31,-16.31,-16.10
-12.01,-1.73,-0.94,-13.72,-13.72,-13.16
-11.66,-1.34,-1.05,-9.52,-9.52,-9.52
-11.35,-1.24,-1.03,-5.88,-5.88,-4.06
-10.68,-1.43,-0.93,6.58,6.58,6.58
-10.12,-0.98,-0.68,18.76,20.02,20.02
-10.15,-0.35,-0.57,25.48,26.32,26.32
-10.35,0.51,-0.58,27.93,27.93,27.44
-10.57,1.47,-0.59,23.87,21.98,21.07
-10.77,1.99,-0.46,15.89,15.89,12.60
-9.50,3.05,-0.38,-6.72,-6.72,-6.72
-9.04,3.17,-0.33,-15.75,-15.75,-15.75
-8.92,2.92,-0.29,-19.67,-19.67,-19.67
-9.28,2.79,-0.25,-16.66,-16.66,-16.66
-9.62,3.29,-0.32,-13.23,-12.25,-12.25
-9.70,4.05,-0.54,-10.71,-10.71,-10.71
-10.16,4.16,-0.67,-10.43,-10.22,-10.22
-10.88,3.72,-0.78,-8.68,-8.26,-8.26
-11.11,3.66,-1.00,-5.88,-5.88,-5.74
-11.16,3.88,-1.23,-5.95,-5.95,-5.95
-11.16,3.83,-1.42,-6.72,-6.72,-6.72
-10.96,3.58,-1.45,-6.86,-6.86,-6.86
-10.70,3.53,-1.47,-7.49,-7.49,-7.49
-10.57,3.52,-1.49,-7.70,-7.42,-7.42
-10.48,3.42,-1.33,-5.88,-5.25,-5.25
-10.21,3.37,-1.12,-2.38,-2.38,-1.40
-9.84,3.52,-1.02,1.40,1.40,1.40
-9.45,3.92,-0.92,3.22,3.22,3.22
-9.16,4.30,-0.82,2.38,2.24,2.24
-9.07,4.47,-0.70,0.91,0.63,0.63
-8.94,4.42,-0.59,-0.21,-0.49,-0.49
-8.80,4.43,-0.55,-1.33,-2.17,-2.17
-8.80,4.78,-0.62,-4.62,-4.62,-4.62
-8.79,4.92,-0.71,-8.75,-8.75,-8.75
-8.85,4.74,-0.68,-9.94,-10.15,-10.15
-8.96,4.56,-0.61,-9.45,-9.45,-9.45
-8.96,4.46,-0.63,-7.56,-7.56,-7.56
-8.90,4.53,-0.68,-6.93,-6.93,-6.93
-8.74,4.49,-0.73,-6.79,-6.86,-6.86
-8.55,4.37,-0.76,-6.79,-6.79,-6.79
-8.50,4.28,-0.82,-6.37,-5.88,-5.88
-8.51,4.17,-0.76,-4.97,-4.41,-4.41
-8.44,4.11,-0.70,-3.29,-3.29,-3.29
-8.43,4.18,-0.75,-2.87,-2.80,-2.80
-8.58,4.24,-0.71,-2.66,-2.52,-2.52
-8.71,4.25,-0.72,-2.31,-2.38,-2.31
-8.85,4.23,-0.71,-1.89,-1.82,-1.82
-8.89,4.02,-0.66,-0.70,-0.70,-0.56
-8.82,3.86,-0.63,0.14,0.14,0.14
-8.80,3.78,-0.63,1.05,1.05,1.12
-8.72,3.91,-0.66,1.26,1.26,1.33
-8.74,3.90,-0.58,1.47,1.47,1.47
-8.79,3.86,-0.58,1.75,1.75,1.75
-8.85,3.81,-0.54,2.10,2.10,2.10
-8.88,3.81,-0.56,2.80,2.80,2.80
-8.83,3.88,-0.55,2.66,2.66,2.66
-8.77,3.94,-0.57,1.47,1.40,1.40
-8.82,3.91,-0.56,0.28,0.14,0.14
-8.82,3.81,-0.55,-0.28,-0.49,-0.49
-8.83,3.78,-0.57,-0.63,-0.63,-0.56
-8.89,3.79,-0.54,-0.49,-0.49,-0.49
-8.95,3.80,-0.57,-0.28,-0.35,-0.35
-9.00,3.86,-0.60,-0.28,-0.35,-0.35
-9.01,3.85,-0.62,-0.35,-0.21,-0.21
-9.02,3.83,-0.67,-0.07,-0.07,-0.21
-9.05,3.82,-0.70,-0.07,-0.07,-0.07
-9.11,3.77,-0.74,0.14,0.14,0.28
-9.15,3.77,-0.74,0.77,0.77,0.77
-9.10,3.83,-0.78,0.77,0.77,0.84
-9.08,3.89,-0.77,0.63,0.63,0.70
-9.01,3.88,-0.76,0.14,0.14,0.14
-8.94,3.92,-0.76,-0.42,-0.35,-0.35
-8.84,3.87,-0.75,-0.42,-0.42,-0.42
-8.78,3.85,-0.68,-0.07,-0.07,-0.07
-8.78,3.80,-0.69,0.42,0.42,0.42
-8.75,3.88,-0.71,0.63,0.63,0.63
-8.76,3.95,-0.72,0.56,0.56,0.56
-8.81,3.98,-0.73,0.49,0.56,0.56
-8.86,3.93,-0.70,0.98,0.98,0.98
-8.95,3.88,-0.69,1.61,1.61,1.61
-9.06,3.91,-0.69,2.45,2.52,2.52
-9.04,4.00,-0.74,2.52,2.45,2.45
-9.07,4.02,-0.74,2.59,2.59,2.59
-9.06,3.95,-0.68,2.94,2.94,3.01
-9.01,3.93,-0.66,3.36,3.36,3.36
-8.99,4.04,-0.67,3.01,3.01,3.01
-8.93,4.05,-0.70,2.59,2.59,2.59
-8.94,4.02,-0.65,2.31,2.38,2.38
-8.88,4.01,-0.65,2.31,2.24,2.24
-8.85,4.05,-0.62,2.24,2.38,2.10
-8.80,4.18,-0.67,1.26,1.05,1.05
-8.71,4.18,-0.70,-0.28,-0.28,-0.35
-8.65,4.13,-0.69,-0.70,-0.77,-0.77
-8.76,4.24,-0.71,-0.91,-0.91,-0.91
-8.80,4.22,-0.73,-0.98,-0.98,-0.98
-8.85,4.23,-0.73,-0.84,-0.91,-0.91
-8.88,4.18,-0.72,-0.77,-0.77,-0.63
-8.91,4.19,-0.73,-0.56,-0.56,-0.42
-8.97,4.12,-0.72,-0.14,-0.14,-0.14
-9.00,4.17,-0.69,0.49,0.49,0.49
-8.98,4.25,-0.71,0.56,0.42,0.42
-8.93,4.32,-0.72,-0.21,-0.21,-0.42
-8.87,4.29,-0.72,-1.12,-1.12,-1.12
-8.76,4.22,-0.70,-0.91,-0.91,-0.91
-8.71,4.19,-0.70,-0.28,-0.14,-0.14
-8.68,4.26,-0.75,0.49,0.56,0.56
-8.65,4.34,-0.75,1.12,1.12,1.19
-8.65,4.34,-0.75,1.40,1.40,1.47
-8.61,4.36,-0.75,1.26,1.26,1.26
-8.56,4.46,-0.75,0.91,0.91,0.91
-8.61,4.50,-0.74,0.00,0.00,0.00
-8.68,4.48,-0.71,-0.42,-0.42,-0.42
-8.67,4.48,-0.71,-0.49,-0.56,-0.56
-8.66,4.48,-0.69,-0.49,-0.49,-0.49
-8.67,4.47,-0.64,-0.07,-0.07,-0.07
-8.69,4.45,-0.66,0.14,0.14,0.14
-8.71,4.41,-0.68,0.28,0.28,0.35
-8.65,4.48,-0.67,0.42,0.42,0.42
-8.70,4.51,-0.68,0.49,0.49,0.49
-8.73,4.49,-0.71,0.56,0.56,0.56
-8.74,4.49,-0.67,0.63,0.70,0.70
-8.71,4.48,-0.68,0.84,0.84,0.84
-8.67,4.53,-0.68,0.77,0.77,0.77
-8.73,4.58,-0.72,-0.35,-0.35,-0.35
-8.72,4.68,-0.74,-1.12,-1.54,-1.54
-8.70,4.67,-0.76,-2.80,-2.80,-2.80
-8.66,4.58,-0.75,-4.06,-3.99,-3.99
-8.64,4.48,-0.75,-3.99,-3.92,-3.92
-8.66,4.43,-0.74,-3.29,-3.08,-3.08
-8.67,4.42,-0.74,-2.24,-2.24,-2.03
-8.71,4.54,-0.76,-1.33,-1.33,-1.33
-8.77,4.59,-0.77,-1.12,-1.12,-1.12
-8.80,4.57,-0.75,-1.05,-0.91,-0.91
-8.76,4.53,-0.72,-0.91,-0.98,-0.98
-8.75,4.59,-0.70,-1.05,-1.05,-1.12
-8.69,4.66,-0.72,-1.47,-1.54,-1.54
-8.64,4.61,-0.70,-1.75,-1.82,-1.82
-8.61,4.54,-0.66,-1.05,-1.05,-0.84
-8.54,4.46,-0.63,0.14,0.14,0.21
-8.51,4.49,-0.66,1.47,1.47,1.47
-8.52,4.58,-0.67,1.96,1.96,1.96
-8.54,4.65,-0.67,1.96,1.96,1.96
-8.58,4.65,-0.64,1.75,1.61,1.61
-8.52,4.70,-0.66,1.33,1.33,1.05
-8.56,4.77,-0.70,0.28,0.28,0.00
-8.53,4.80,-0.71,-1.54,-1.54,-1.54
-8.49,4.77,-0.69,-2.52,-2.52,-2.52
-8.43,4.58,-0.70,-2.52,-2.31,-2.31
-8.48,4.49,-0.67,-1.26,-1.12,-1.12
-8.47,4.52,-0.68,-0.42,-0.42,-0.28
-8.55,4.68,-0.71,-0.42,-0.42,-0.35
-8.55,4.66,-0.72,-0.56,-0.63,-0.63
-8.62,4.61,-0.70,-0.70,-0.70,-0.63
-8.67,4.55,-0.70,-0.21,-0.21,-0.21
-8.68,4.57,-0.72,-0.14,-0.14,-0.14
-8.63,4.59,-0.69,-0.07,-0.14,-0.14
-8.65,4.59,-0.72,-0.14,-0.14,-0.21
-8.68,4.60,-0.72,-0.21,-0.21,-0.14
-8.65,4.54,-0.68,0.14,0.14,0.07
-8.64,4.53,-0.66,0.28,0.28,0.28
-8.58,4.56,-0.67,0.00,0.00,0.00
-8.59,4.59,-0.69,0.07,0.07,0.07
-8.56,4.57,-0.66,0.28,0.42,0.42
-8.55,4.65,-0.65,0.49,0.49,0.49
-8.57,4.67,-0.67,-0.35,-0.35,-0.35
-8.56,4.71,-0.68,-1.19,-1.47,-1.47
-8.57,4.65,-0.66,-2.24,-2.24,-2.17
-8.54,4.60,-0.67,-2.66,-2.66,-2.80
-8.57,4.59,-0.63,-2.59,-2.59,-2.59
-8.58,4.53,-0.67,-2.17,-2.17,-2.17
-8.60,4.56,-0.64,-1.54,-1.26,-1.26
-8.66,4.56,-0.66,-0.84,-0.84,-0.84
-8.72,4.63,-0.69,-0.70,-0.70,-0.77
-8.71,4.68,-0.72,-1.19,-1.19,-1.19
-8.69,4.66,-0.71,-1.40,-1.40,-1.40
-8.66,4.59,-0.66,-1.33,-1.33,-1.33
-8.60,4.56,-0.67,-1.19,-1.05,-1.05
-8.62,4.53,-0.67,-0.28,-0.28,-0.28
-8.55,4.53,-0.69,0.49,0.49,0.63
-8.55,4.62,-0.66,1.75,1.75,1.75
-8.54,4.69,-0.61,0.63,0.35,0.35
-8.59,4.68,-0.60,-0.35,-0.49,-0.49
-8.58,4.61,-0.60,-1.19,-1.19,-1.40
-8.60,4.60,-0.60,-1.75,-1.75,-1.75
-8.58,4.48,-0.60,-2.03,-2.03,-1.96
-8.61,4.47,-0.60,-1.82,-1.82,-1.82
-8.64,4.49,-0.59,-1.68,-1.68,-1.68
-8.67,4.55,-0.63,-1.61,-1.61,-1.61
-8.74,4.53,-0.61,-1.33,-1.19,-1.19
-8.75,4.54,-0.61,-0.98,-0.84,-0.84
-8.75,4.55,-0.63,-0.77,-0.70,-0.70
-8.71,4.57,-0.64,-0.77,-0.77,-0.77
-8.70,4.55,-0.65,-0.63,-0.63,-0.63
-8.64,4.52,-0.65,-0.56,-0.56,-0.42
-8.65,4.51,-0.61,0.00,0.07,0.07
-8.63,4.56,-0.62,0.35,0.35,0.35
-8.65,4.58,-0.61,0.21,0.21,0.21
-8.62,4.54,-0.62,0.00,0.00,0.00
-8.57,4.51,-0.61,-0.07,-0.07,17.85
-8.53,4.51,-0.64,0.21,0.14,0.14
-8.53,4.58,-0.64,-0.07,-0.07,-0.21
-8.57,4.59,-0.66,-0.70,-0.70,-0.91
-8.60,4.56,-0.66,-1.19,-1.19,-1.33
-8.63,4.50,-0.63,-1.47,-1.47,-1.47
-8.70,4.49,-0.61,-1.54,-1.54,-1.54
-8.71,4.48,-0.61,-1.40,-1.40,-1.40
-8.76,4.51,-0.57,-1.12,-0.91,-0.91
-8.72,4.50,-0.56,-0.63,-0.70,-0.63
-8.68,4.49,-0.56,-0.42,-0.42,-0.35
-8.63,4.45,-0.56,-0.35,-0.14,-0.14
-8.65,4.50,-0.56,-0.07,0.07,0.07
-8.65,4.51,-0.51,0.07,0.00,0.00
-8.65,4.56,-0.50,-0.42,-0.42,-0.35
-8.62,4.63,-0.46,-1.12,-1.12,-1.19
-8.62,4.69,-0.46,-2.73,-2.73,-2.73
-8.66,4.67,-0.46,-3.92,-3.92,-3.92
-8.62,4.53,-0.50,-4.41,-4.41,-4.41
-8.60,4.44,-0.48,-4.41,-4.41,-4.41
-8.63,4.38,-0.50,-3.92,-3.64,-3.64
-8.65,4.41,-0.54,-2.87,-2.87,-2.73
-8.66,4.41,-0.56,-1.82,-1.82,-1.82
-8.73,4.48,-0.61,-0.35,-0.35,-0.21
-8.74,4.52,-0.61,-0.07,-0.07,-0.07
-8.71,4.54,-0.64,-0.49,-0.49,-0.49
-8.71,4.55,-0.65,-1.05,-1.05,-1.05
-8.68,4.50,-0.61,-1.40,-1.40,-1.40
-8.66,4.52,-0.59,-1.47,-1.47,-1.47
-8.64,4.50,-0.57,-1.47,-1.47,-1.47
-8.66,4.59,-0.54,-1.61,-1.61,-1.61
-8.67,4.54,-0.55,-1.47,-1.47,-1.33
-8.64,4.45,-0.52,-0.56,-0.56,-0.56
-8.68,4.45,-0.54,0.56,0.56,0.56
-8.65,4.47,-0.52,1.26,1.26,1.26
-8.68,4.49,-0.50,1.47,1.47,1.47
-8.61,4.49,-0.51,1.40,1.40,1.40
-8.66,4.57,-0.50,1.19,0.91,0.91
-8.63,4.61,-0.49,0.35,0.35,0.07
-8.64,4.57,-0.41,-0.07,-0.07,-0.07
-8.64,4.48,-0.42,0.28,0.28,0.28
-8.68,4.53,-0.42,0.56,0.56,0.56
-8.61,4.53,-0.42,0.35,0.35,0.35
-8.61,4.53,-0.43,0.07,0.07,0.07
-8.60,4.55,-0.45,-0.07,-0.28,-0.28
-8.64,4.57,-0.49,-0.77,-0.70,-0.91
-8.69,4.64,-0.53,-1.40,-1.40,-1.47
-8.64,4.56,-0.57,-1.75,-1.82,-1.82
-8.63,4.51,-0.54,-1.68,-1.68,-1.68
-8.62,4.56,-0.55,-1.47,-1.47,-1.47
-8.65,4.63,-0.61,-1.54,-1.54,-1.54
-8.67,4.55,-0.63,-1.54,-1.33,-1.33
-8.65,4.47,-0.65,-0.91,-0.70,-0.70
-8.66,4.49,-0.63,0.14,0.14,0.28
-8.61,4.55,-0.62,0.42,0.63,0.56
-8.59,4.56,-0.62,0.70,0.70,0.70
-8.60,4.55,-0.60,0.84,0.77,0.77
-8.64,4.54,-0.54,1.33,1.33,1.47
-8.60,4.51,-0.53,1.54,1.61,1.68
-8.63,4.54,-0.53,1.96,1.96,2.10
-8.61,4.60,-0.48,2.66,2.66,2.66
-8.66,4.62,-0.46,2.66,2.59,2.59
-8.65,4.58,-0.47,2.59,2.59,2.59
-8.65,4.61,-0.48,2.31,2.31,2.10
-8.62,4.61,-0.48,1.75,1.75,1.61
-8.64,4.61,-0.49,0.77,0.77,0.77
-8.62,4.58,-0.55,0.28,0.28,0.28
-8.64,4.53,-0.51,0.21,0.28,0.28
-8.71,4.54,-0.49,0.56,0.56,0.63
-8.79,4.52,-0.52,1.19,1.19,1.26
-8.92,4.52,-0.54,1.54,1.54,1.54
-9.03,4.49,-0.54,1.96,2.17,2.17
-9.11,4.45,-0.53,2.66,2.87,2.87
-9.28,4.37,-0.54,3.78,3.78,3.78
-9.46,4.28,-0.62,5.67,5.67,5.67
-9.60,4.08,-0.62,7.84,7.84,7.84
-9.70,3.99,-0.61,10.78,10.78,10.78
-9.91,3.99,-0.73,14.07,14.07,14.07
-10.00,3.96,-0.78,16.03,16.03,16.03
-10.05,3.85,-0.81,18.62,18.97,18.97
-10.24,3.64,-0.81,20.58,21.42,21.42
-10.39,3.58,-0.81,22.54,22.75,22.75
-10.55,3.74,-0.88,22.61,22.19,22.19
-10.99,3.59,-0.90,21.77,21.63,21.42
-11.44,3.27,-0.89,20.86,20.86,20.51
-12.27,2.94,-0.94,20.02,20.02,19.88
-13.16,2.68,-0.96,19.88,19.88,19.81
-13.65,2.40,-0.97,20.37,20.58,20.58
-13.82,2.02,-0.94,21.07,21.07,21.35
-13.81,1.78,-0.84,21.84,21.84,21.91
-13.88,1.59,-0.78,22.47,22.47,22.47