aX,aY,aZ,gX,gY,gZ
-9.53,0.80,1.56,1.68,1.68,1.68
-9.60,0.89,1.57,0.14,0.14,0.14
-9.71,0.79,1.56,-0.35,-0.28,-0.28
-9.85,0.67,1.53,-0.28,-0.28,-0.07
-9.96,0.57,1.51,0.42,0.49,0.49
-9.92,0.62,1.51,0.98,0.98,0.98
-9.80,0.69,1.52,0.70,0.70,0.63
-9.69,0.73,1.50,0.07,0.07,0.07
-9.66,0.74,1.53,-0.35,-0.35,-0.35
-9.65,0.68,1.50,0.70,0.70,0.70
-9.70,0.72,1.47,0.98,1.05,1.05
-9.74,0.77,1.50,0.84,0.63,0.63
-9.89,0.73,1.48,0.07,0.07,0.07
-9.93,0.68,1.43,0.21,0.21,0.21
-9.91,0.77,1.43,0.07,0.07,0.07
-9.85,0.86,1.46,-1.05,-1.05,-1.05
-9.81,0.83,1.51,-2.38,-2.38,-2.38
-9.76,0.71,1.49,-3.08,-3.15,-3.15
-9.68,0.63,1.59,-2.94,-2.87,-2.87
-9.64,0.60,1.63,-2.17,-2.17,-2.24
-9.62,0.58,1.64,-0.98,-0.98,-0.98
-9.57,0.58,1.62,0.14,0.14,0.14
-9.54,0.61,1.68,1.33,1.33,1.33
-9.56,0.66,1.65,1.75,1.82,1.82
-9.60,0.67,1.64,2.10,2.10,2.03
-9.64,0.67,1.63,2.45,2.45,2.45
-9.66,0.72,1.55,2.52,2.52,2.52
-9.71,0.77,1.57,1.96,1.96,1.96
-9.78,0.81,1.58,0.98,0.91,0.91
-9.89,0.68,1.56,0.77,0.84,0.84
-9.99,0.57,1.56,1.54,1.82,2.03
-9.96,0.60,1.57,2.94,2.94,2.94
-9.82,0.79,1.57,3.29,3.29,3.29
-9.76,0.91,1.56,2.52,2.45,2.45
-9.83,0.91,1.54,2.24,2.24,2.10
-10.02,0.80,1.51,2.31,2.38,2.45
-10.26,0.71,1.48,3.43,3.57,3.57
-10.38,0.75,1.47,4.76,4.83,4.83
-10.51,0.82,1.43,6.44,6.72,6.72
-10.55,1.00,1.38,8.68,8.68,8.96
-10.68,1.30,1.40,9.24,9.24,9.24
-10.92,1.50,1.38,9.52,9.52,9.52
-11.37,1.64,1.37,10.29,10.29,10.29
-11.81,1.62,1.23,11.62,11.62,11.62
-12.26,1.56,0.89,14.07,14.07,14.07
-12.46,1.80,0.60,20.16,20.16,20.16
-12.75,2.37,0.56,21.84,21.42,21.42
-13.31,2.84,0.49,18.90,18.90,18.90
-13.80,2.91,0.19,14.35,14.35,14.35
-13.86,3.03,-0.15,13.86,14.07,14.07
-13.27,3.81,-0.30,13.09,13.09,13.09
-12.61,4.67,-0.33,6.79,5.88,5.88
-12.14,4.88,-0.45,0.56,-0.14,-0.14
-12.05,4.45,-0.79,-3.99,-3.99,-4.06
-11.59,4.00,-0.90,-2.94,-2.94,-2.59
-11.03,3.91,-0.76,0.07,0.07,0.07
-9.96,4.04,-0.61,0.07,-0.63,-0.63
-8.80,4.16,-0.58,-3.92,-5.39,-5.39
-8.18,3.77,-0.65,-9.03,-9.03,-9.59
-8.05,2.74,-1.14,-5.04,-5.04,-5.04
-7.72,2.61,-1.27,7.35,7.35,7.35
-4.92,6.13,-0.87,15.47,14.28,14.28
-4.12,7.26,-0.69,-0.07,-0.07,-0.07
-3.68,7.30,-0.62,-16.24,-17.50,-17.50
-3.46,6.95,-0.51,-23.45,-23.45,-23.45
-3.04,7.26,-0.22,-30.38,-30.38,-30.38
-2.29,7.26,-0.10,-37.24,-37.24,-37.24
1.44,5.98,0.06,-54.60,-54.60,-54.60
2.99,4.75,-0.02,-50.89,-46.62,-46.62
4.62,4.48,-0.08,-37.24,-35.28,-31.71
5.70,4.83,-0.00,-23.94,-22.47,-19.81
6.56,5.21,-0.35,-13.23,-12.18,-12.18
7.08,5.64,-0.69,-0.21,1.19,1.19
7.14,6.17,-0.72,8.12,8.12,8.12
6.88,7.08,-0.72,14.14,15.05,15.05
6.21,7.93,-0.87,16.52,16.52,16.52
5.18,8.42,-0.89,16.94,17.22,17.22
4.28,8.81,-0.92,18.97,18.97,19.25
3.17,8.89,-0.87,20.02,20.37,20.37
2.33,9.05,-0.81,20.65,20.44,20.44
1.73,9.63,-0.67,17.57,17.57,16.94
1.30,9.75,-0.59,11.27,11.27,11.27
1.15,9.71,-0.67,7.21,7.21,7.21
1.20,9.77,-0.77,4.06,3.01,3.01
1.37,9.85,-0.75,0.28,0.00,0.00
1.60,9.75,-0.61,-1.05,-1.05,-1.19
1.93,9.65,-0.49,-1.75,-1.75,-1.75
1.99,9.57,-0.39,-2.73,-2.73,-2.73
2.04,9.54,-0.31,-2.17,-2.17,-1.82
2.26,9.51,-0.21,-0.84,-0.63,-0.63
2.44,9.47,-0.22,-0.35,-0.35,-0.35
2.55,9.19,-0.24,0.21,0.70,0.70
2.75,8.85,-0.39,2.38,2.80,3.43
2.89,8.75,-0.48,4.83,5.18,5.18
3.06,8.86,-0.45,6.23,6.58,6.58
3.30,9.09,-0.45,7.00,7.14,7.14
3.53,9.17,-0.58,7.49,7.49,7.49
3.73,9.18,-0.67,6.93,6.30,6.30
3.98,9.46,-0.67,2.94,2.94,2.94
4.10,9.35,-0.69,-1.75,-1.75,-1.75
4.07,9.19,-0.88,-4.13,-4.13,-4.13
4.00,8.76,-1.01,-4.83,-4.90,-4.90
3.97,8.42,-0.98,-6.37,-6.65,-6.65
4.13,8.23,-0.96,-8.61,-8.61,-9.03
4.49,7.91,-0.94,-11.55,-11.55,-11.55
4.98,7.80,-0.87,-13.44,-13.44,-13.44
5.42,7.71,-0.71,-15.96,-15.96,-15.96
5.79,7.37,-0.62,-14.77,-14.77,-14.77
5.97,7.26,-0.50,-10.64,-10.01,-10.01
6.05,7.33,-0.35,-6.58,-4.13,-4.13
5.87,7.35,-0.21,2.24,2.24,2.24
5.70,7.55,-0.08,9.73,10.50,10.50
5.46,7.82,-0.10,13.37,14.70,14.70
5.06,7.90,-0.18,16.24,16.38,16.87
4.59,7.77,-0.28,17.92,18.13,18.13
4.25,7.76,-0.43,18.83,18.69,18.69
3.91,7.68,-0.46,11.83,11.83,11.83
3.84,7.83,-0.48,6.37,5.88,5.88
3.70,7.77,-0.46,3.36,3.22,3.22
3.29,7.36,-0.47,3.01,3.01,3.01
3.04,7.35,-0.50,2.03,2.03,1.75
2.61,7.57,-0.47,-0.35,-1.40,-1.96
1.89,7.58,-0.49,-3.64,-3.78,-3.78
1.25,7.66,-0.61,-2.10,-2.10,-1.68
0.18,7.80,-0.58,0.84,0.84,1.12
-0.91,8.01,-0.54,2.10,2.10,2.10
-1.72,7.92,-0.57,0.91,0.91,0.91
-2.39,7.09,-0.63,2.59,2.59,2.59
-3.03,6.67,-0.64,5.81,5.81,5.81
-3.85,6.78,-0.61,3.85,3.85,3.85
-4.55,7.11,-0.63,-1.12,-1.12,-1.12
-4.96,6.92,-0.54,-10.78,-10.78,-10.78
-5.41,6.48,-0.40,-16.94,-16.94,-16.94
-6.06,5.71,-0.37,-19.74,-19.74,-19.74
-6.66,4.55,-0.34,-18.90,-18.90,-18.90
-7.03,4.21,-0.25,-16.17,-16.17,-16.17
-7.18,4.36,-0.11,-13.02,-13.02,-12.88
-7.25,4.26,0.11,-14.98,-14.98,-14.98
-8.18,3.04,0.35,-20.02,-20.02,-20.02
-8.24,1.81,0.15,-19.39,-19.39,-18.76
-8.13,1.46,0.18,-13.23,-13.23,-13.23
-9.26,0.97,0.65,-15.68,-15.68,-16.66
-10.62,0.08,1.00,-24.08,-24.08,-25.41
-10.78,-0.60,0.72,-23.03,-23.03,-23.03
-10.26,-0.35,0.82,-15.61,-15.26,-15.26
-10.93,-0.79,1.36,-15.54,-15.89,-16.59
-11.72,-1.38,1.76,-17.29,-17.01,-17.01
-11.67,-2.00,2.10,-10.92,-10.15,-10.15
-10.57,-1.84,2.18,-10.08,-10.08,-10.08
-10.73,-3.05,2.41,-26.95,-26.95,-26.95
-11.31,-4.69,2.35,-38.50,-41.16,-41.16
-11.16,-5.44,2.56,-44.59,-44.59,-44.59
-11.21,-6.11,3.30,-41.30,-41.30,-41.30
-11.50,-6.60,3.63,-38.99,-38.15,-38.15
-11.23,-6.22,4.22,-35.49,-35.49,-35.07
-10.95,-6.37,4.90,-29.61,-29.61,-29.61
-10.91,-6.37,5.04,-23.45,-21.49,-21.49
-11.06,-6.09,4.91,-15.26,-15.26,-13.37
-11.02,-5.53,4.66,-7.49,-7.49,-7.49
-10.90,-5.03,4.50,1.19,1.19,1.19
-10.92,-4.94,4.25,8.47,8.47,10.99
-10.94,-5.08,3.76,21.28,21.28,21.28
-10.80,-4.84,3.43,29.96,29.96,29.96
-10.59,-4.57,3.26,34.02,34.02,34.02
-10.29,-4.28,3.02,34.72,34.72,34.72
-10.01,-4.13,2.79,33.25,33.25,33.25
-9.72,-4.04,2.66,30.87,30.87,30.87
-9.46,-4.02,2.65,27.37,27.37,27.37
-9.30,-4.20,2.65,24.99,24.99,24.99
-9.22,-4.36,2.67,23.94,23.94,23.94
-9.02,-4.44,2.74,25.27,25.62,25.62
-8.90,-4.31,2.94,26.39,26.32,26.32
-9.04,-4.24,3.20,26.11,26.11,26.11
-9.40,-4.14,3.35,26.18,26.32,26.32
-9.76,-4.03,3.62,26.53,26.53,27.23
-9.89,-3.98,3.70,29.05,29.05,29.68
-10.15,-3.92,3.74,33.60,33.60,33.60
-10.88,-3.86,3.69,36.40,36.40,36.40
-11.55,-3.92,3.61,40.39,40.39,40.39
-11.89,-3.94,3.65,43.68,45.08,45.08
-12.08,-3.56,3.62,48.93,49.84,51.45
-12.04,-2.72,3.44,57.68,58.45,58.45
-12.20,-2.20,3.42,62.72,63.28,63.28
-12.28,-1.70,3.23,65.94,66.36,66.64
-12.52,-1.48,2.94,67.41,67.48,67.48
-12.79,-1.09,2.41,66.85,66.85,66.92
-12.69,-0.40,2.01,65.94,65.94,65.73
-12.83,-0.21,1.71,61.95,61.95,61.95
-12.68,0.01,1.42,60.20,60.20,60.20
-12.36,-0.15,1.12,63.21,63.77,63.77
-12.02,0.15,0.92,68.60,68.60,69.02
-11.00,0.65,0.89,70.42,70.42,70.49
-9.64,1.60,0.78,70.91,70.91,70.84
-8.19,2.02,0.68,69.58,69.58,69.58
-7.40,2.23,0.79,63.91,63.91,63.91
-6.24,2.25,0.64,61.18,61.18,61.18
-5.44,2.25,0.42,61.67,61.67,61.67
-5.01,2.65,0.23,60.97,60.97,60.97
-4.57,3.01,-0.07,59.85,59.85,59.85
-4.45,3.23,-0.17,59.64,59.78,59.78
-3.97,3.94,-0.81,61.88,61.88,62.30
-3.36,5.09,-1.66,64.68,64.68,64.68
-2.87,7.24,-2.05,59.85,59.85,59.85
-2.61,7.37,-2.18,51.66,48.65,48.65
-1.77,8.32,-2.70,39.20,37.87,37.87
-0.99,8.90,-3.00,26.60,24.71,24.71
-0.35,9.10,-3.35,5.95,5.95,5.95
0.33,8.04,-3.70,-6.79,-6.79,-6.79
0.98,7.17,-3.78,-8.89,-8.89,-8.89
1.61,6.94,-3.79,-8.68,-8.68,-8.54
2.36,6.79,-3.68,-5.81,-5.81,-5.74
3.24,7.10,-3.41,-5.25,-5.25,-5.25
3.76,7.67,-2.95,-9.38,-9.38,-9.38
3.85,8.11,-2.82,-13.65,-14.84,-14.84
3.98,8.24,-2.73,-17.36,-17.36,-17.36
3.69,8.04,-2.44,-18.76,-18.76,-18.76
3.07,7.90,-2.19,-16.17,-16.17,-16.17
2.49,7.70,-2.02,-12.53,-12.53,-12.53
2.09,7.81,-1.89,-4.20,-4.20,-4.20
1.67,8.14,-1.73,1.75,1.75,1.75
1.12,8.75,-1.59,3.36,3.36,3.36
0.39,9.20,-1.52,1.19,1.19,1.19
-0.13,9.06,-1.70,-0.77,-0.77,-0.77
-0.65,9.01,-1.76,-1.19,-1.19,-1.19
-1.08,9.09,-1.74,-0.56,-0.49,-0.49
-1.58,9.18,-1.81,0.42,0.42,0.63
-2.05,9.12,-2.01,2.66,2.66,2.66
-2.39,8.94,-2.16,4.83,4.83,4.83
-2.57,9.00,-2.15,5.18,4.83,4.83
-2.68,9.40,-2.22,2.66,2.66,2.31
-2.99,9.72,-2.34,-2.66,-2.66,-2.66
-3.32,9.94,-2.34,-6.37,-7.21,-7.21
-3.53,9.82,-2.26,-8.96,-9.45,-9.45
-3.63,9.78,-2.08,-11.06,-11.06,-11.90
-3.74,9.86,-2.01,-14.49,-14.49,-14.49
-3.86,9.65,-1.94,-15.75,-15.75,-15.40
-3.95,9.34,-1.67,-11.13,-11.13,-11.13
-3.88,9.31,-1.44,-8.47,-7.98,-7.98
-3.75,9.51,-1.33,-6.44,-6.44,-6.23
-3.62,9.47,-1.32,-4.97,-4.06,-3.57
-3.47,9.23,-1.38,0.84,0.84,0.84
-3.35,9.27,-1.30,5.32,5.60,5.60
-3.34,9.56,-1.37,6.16,6.16,6.16
-3.12,9.21,-1.70,9.87,9.87,10.22
-2.90,9.24,-1.76,13.30,13.30,13.51
-2.69,9.42,-1.86,13.93,13.93,14.21
-2.46,9.36,-1.96,15.19,15.82,15.82
-1.99,9.20,-1.78,21.56,21.56,21.63
-1.66,9.68,-1.69,19.67,19.67,19.67
-1.29,9.73,-1.81,15.05,14.56,14.56
-1.02,9.59,-1.94,12.39,11.34,11.34
-0.51,9.48,-2.10,10.64,10.57,10.43
0.81,9.80,-2.19,4.83,4.20,4.20
1.60,9.66,-2.22,-0.63,-1.19,-1.19
2.23,9.01,-2.13,-4.55,-5.11,-5.11
2.64,8.49,-2.15,-9.17,-9.17,-9.45
2.97,7.97,-2.51,-10.43,-10.43,-10.36
3.46,7.39,-2.84,-8.05,-7.49,-7.49
3.89,7.23,-2.96,-2.66,-2.66,-2.17
4.53,7.59,-3.00,-0.70,-0.70,-0.84
5.10,7.85,-3.07,-2.52,-2.52,-4.34
5.42,7.95,-3.18,-9.52,-9.52,-9.52
5.37,7.93,-3.10,-14.00,-14.00,-14.00
5.00,7.72,-2.95,-14.35,-14.07,-14.07
4.51,7.52,-2.80,-12.25,-12.25,-12.25
4.06,7.38,-2.63,-8.12,-8.12,-8.12
3.86,7.26,-2.77,-4.90,-4.55,-4.55
4.03,7.26,-2.86,-3.08,-3.15,-3.15
4.35,7.79,-2.98,-6.30,-7.14,-7.14
4.48,8.12,-3.00,-15.33,-16.80,-16.80
4.27,8.48,-3.05,-25.83,-27.23,-27.23
2.32,7.35,-2.45,-50.68,-50.68,-51.31
1.35,7.38,-1.78,-55.93,-55.93,-56.49
0.29,7.45,-1.25,-64.12,-64.12,-64.12
-0.86,7.07,-0.74,-72.10,-72.10,-72.10
-1.85,6.25,-0.52,-70.77,-70.77,-70.77
-2.93,5.80,-0.18,-61.60,-61.60,-61.60
-3.91,5.23,-0.01,-50.75,-50.75,-50.75
-4.45,5.53,0.01,-44.52,-44.52,-44.52
-4.56,5.94,0.08,-42.63,-42.63,-42.63
-4.96,5.94,0.27,-48.37,-48.37,-48.37
-5.26,5.01,0.36,-52.85,-52.92,-52.92
-5.56,3.95,0.42,-50.68,-47.67,-47.67
-5.57,3.98,0.55,-41.79,-40.60,-38.57
-5.47,4.22,1.40,-37.38,-38.15,-38.15
-5.96,3.16,2.37,-51.31,-51.31,-52.92
-5.75,2.13,2.46,-58.73,-60.27,-61.04
-5.78,0.06,2.60,-63.98,-63.98,-65.73
-7.35,-1.16,3.04,-69.02,-69.02,-69.02
-8.25,-2.57,4.03,-77.77,-77.77,-77.77
-7.60,-2.98,3.91,-78.68,-78.68,-78.68
-7.39,-3.73,3.76,-72.24,-71.54,-71.54
-8.76,-7.15,4.40,-69.16,-69.02,-69.02
-9.52,-9.79,4.92,-66.50,-66.50,-66.50
-8.81,-9.57,4.16,-53.62,-52.08,-52.08
-8.19,-8.19,4.05,-47.18,-47.04,-47.04
-8.89,-9.70,5.43,-53.20,-53.20,-53.20
-9.25,-9.88,5.55,-62.23,-62.23,-62.44
-8.70,-9.60,4.69,-56.77,-56.77,-56.77
-7.69,-9.06,4.19,-49.21,-47.67,-47.67
-7.04,-9.89,4.42,-47.67,-50.19,-50.19
-6.45,-11.22,4.37,-61.11,-61.11,-61.11
-5.69,-11.99,4.13,-76.23,-76.23,-76.23
-4.46,-12.19,3.66,-83.16,-83.16,-83.16
-2.86,-12.20,3.45,-86.73,-86.73,-86.73
-1.26,-12.27,3.10,-87.29,-86.80,-86.80
0.57,-13.11,3.12,-82.88,-82.88,-82.88
1.74,-13.96,2.51,-71.82,-71.82,-71.82
2.12,-13.50,1.57,-62.09,-62.09,-62.09
1.78,-12.00,1.07,-54.53,-53.62,-53.62
2.81,-12.36,2.42,-48.30,-47.60,-47.60
3.55,-13.06,2.01,-41.72,-41.72,-41.72
3.71,-12.85,1.30,-28.49,-25.27,-25.27
3.19,-11.22,1.49,-17.36,-17.36,-16.87
3.34,-10.27,2.20,-17.85,-17.85,-17.85
3.76,-10.42,2.27,-20.37,-20.37,-20.37
3.82,-10.38,2.30,-22.89,-23.45,-23.45
3.36,-9.80,2.48,-28.35,-28.35,-28.35
2.94,-9.20,2.75,-39.13,-39.13,-39.13
2.64,-9.08,2.03,-45.85,-45.85,-45.64
2.62,-8.94,1.63,-44.66,-44.66,-44.66
3.14,-10.00,1.63,-39.41,-39.41,-39.41
3.50,-10.91,1.24,-26.46,-26.46,-26.46
3.19,-10.12,0.94,-12.32,-12.32,-12.32
2.87,-9.51,0.40,2.31,3.50,3.50
2.90,-8.73,0.25,9.17,9.59,9.59
2.82,-8.42,0.13,11.06,11.62,11.62
2.61,-8.50,0.16,12.81,13.16,13.79
2.77,-9.00,-0.35,15.54,15.54,16.38
3.05,-8.94,-0.90,16.38,16.38,15.26
3.21,-8.17,-0.57,11.34,11.34,10.50
2.87,-7.80,-0.13,2.24,2.24,1.68
2.43,-8.95,-0.31,2.24,2.24,2.94
2.67,-10.54,-0.98,10.29,10.29,11.41
2.91,-10.63,-0.76,16.24,16.24,16.24
2.41,-9.49,0.35,16.10,15.68,15.68
1.64,-9.41,0.89,14.21,14.28,14.28
1.52,-10.82,0.15,16.52,16.52,16.52
1.86,-12.08,-0.52,26.46,27.79,27.79
2.22,-12.06,-0.28,34.86,38.43,38.43
1.77,-11.55,0.41,42.56,43.89,43.89
0.97,-10.93,0.90,44.03,43.89,43.40
0.31,-11.05,0.86,41.72,41.72,41.72
0.46,-11.75,0.60,45.36,45.36,45.36
0.61,-12.56,0.62,50.33,50.33,50.33
0.38,-12.16,1.12,53.83,53.83,53.83
-0.13,-10.91,1.72,52.57,52.57,52.36
-0.62,-10.16,2.07,50.19,50.19,50.19
-1.15,-9.93,1.94,48.79,48.16,48.16
-1.89,-10.07,2.02,44.66,44.66,44.66
-2.46,-10.74,2.31,41.16,41.16,41.16
-3.06,-11.28,2.18,45.22,45.22,45.22
-3.67,-10.72,2.24,55.16,56.35,56.35
-4.24,-9.92,2.27,68.32,68.32,69.23
-4.85,-8.92,2.22,71.89,71.89,71.75
-5.18,-8.23,2.17,67.27,67.27,66.22
-5.40,-7.41,1.95,55.72,55.72,55.72
-5.69,-6.74,2.09,47.04,45.85,45.85
-6.18,-6.28,2.44,39.55,38.64,38.64
-6.50,-6.36,2.37,34.09,34.09,33.81
-6.84,-6.60,2.08,32.41,32.41,32.20
-6.87,-6.08,2.11,28.98,28.98,28.98
-6.92,-5.36,2.23,25.27,23.66,23.66
-6.99,-4.89,2.33,19.25,17.78,17.78
-7.13,-4.70,2.28,13.65,13.65,12.18
-7.20,-4.66,2.19,9.10,9.10,9.10
-7.30,-4.70,2.07,6.44,6.44,6.02
-7.53,-4.66,2.10,3.99,3.99,3.99
-7.92,-4.82,2.08,4.62,5.32,5.32
-8.42,-5.29,2.17,9.10,10.78,10.78
-8.50,-5.34,2.19,17.01,17.01,19.25
-8.43,-4.73,2.13,25.83,26.53,26.53
-9.80,-3.80,2.19,29.19,29.19,29.26
-9.10,-3.62,2.23,30.24,30.24,30.52
-9.74,-3.49,2.28,32.41,33.25,33.67
-10.23,-3.13,2.28,35.84,35.84,36.68
-10.50,-2.50,2.23,37.10,37.10,36.89
-11.16,-1.66,2.00,29.89,29.89,29.26
-12.03,-1.90,1.58,25.20,25.20,24.99
-13.09,-2.43,1.26,25.34,25.34,25.34
-13.87,-2.64,0.95,28.98,29.82,31.50
-13.67,-1.55,0.73,35.35,36.05,36.05
-12.91,0.52,0.74,34.44,33.60,33.60
-12.43,1.24,0.70,24.64,23.17,23.17
-12.50,1.36,0.54,17.22,14.21,14.21
-13.19,0.94,0.30,10.15,9.59,8.75
-13.57,0.83,0.12,9.80,10.15,10.15
-13.62,1.28,0.03,12.53,12.53,12.53
-12.97,2.32,-0.08,8.96,8.96,8.96
-12.16,2.96,-0.22,4.27,4.27,3.64
-11.84,2.90,-0.45,-0.14,-0.14,-0.14
-12.31,2.09,-0.59,-0.98,-0.98,-0.98
-12.23,1.56,-0.67,7.28,10.29,10.29
-11.10,2.39,-0.61,20.44,20.44,20.44
-9.11,3.95,-0.42,18.62,18.62,18.62
-7.40,4.63,-0.43,10.36,7.49,7.49
-6.28,4.07,-0.44,1.96,1.96,1.68
-5.09,3.62,-0.21,4.48,4.48,4.48
-3.85,3.60,-0.07,6.02,6.02,6.02
-2.80,3.74,0.11,6.16,6.16,6.16
-1.93,3.70,0.00,6.44,6.44,6.44
-0.99,4.15,-0.16,7.84,7.84,7.84
-0.21,4.66,-0.18,10.85,10.92,10.92
0.44,5.20,-0.17,10.92,10.92,10.92
1.18,5.57,-0.09,10.50,10.43,10.43
1.88,5.91,-0.18,10.29,10.29,10.29
2.46,6.34,-0.40,9.73,9.73,9.73
2.91,6.81,-0.53,10.29,10.71,10.71
3.36,7.16,-0.59,11.13,10.99,10.99
3.80,7.97,-0.59,9.10,8.54,8.54
4.17,8.41,-0.55,5.11,4.69,4.69
4.43,8.32,-0.47,1.26,1.26,1.40
4.29,8.21,-0.52,3.01,3.01,3.01
4.09,8.41,-0.56,6.23,6.23,6.23
3.89,8.70,-0.52,7.42,7.35,7.35
3.59,9.02,-0.28,6.16,6.16,6.02
3.18,9.17,-0.17,3.71,3.71,3.71
2.76,8.99,-0.30,4.34,4.34,4.34
2.23,8.70,-0.44,12.18,12.95,12.95
2.06,8.85,-0.58,18.55,18.55,20.72
1.84,9.00,-0.62,25.69,25.69,25.69
1.53,9.38,-0.66,29.61,29.82,29.82
1.40,9.60,-0.78,30.45,30.45,30.31
1.26,10.01,-1.11,25.97,25.48,25.48
1.35,10.05,-1.14,20.93,20.93,20.44
1.57,10.09,-1.13,18.20,16.87,16.31
1.96,9.94,-1.21,12.67,10.99,10.99
2.40,9.87,-1.24,3.36,3.36,2.31
2.78,9.69,-1.22,-5.18,-5.18,-6.02
3.01,9.19,-1.22,-11.27,-11.27,-11.27
3.34,8.70,-1.23,-14.07,-14.07,-14.07
3.67,8.31,-1.24,-13.65,-12.95,-12.46
4.02,7.94,-1.35,-8.82,-8.82,-8.05
4.43,8.00,-1.38,-3.08,-3.08,-3.08
4.83,8.42,-1.33,-1.19,-1.19,-1.19
4.93,8.38,-1.38,2.03,2.03,2.03
4.87,8.47,-1.39,3.57,3.64,3.64
4.66,8.65,-1.41,3.15,3.15,2.73
4.49,8.55,-1.51,1.47,1.40,1.40
4.43,8.40,-1.73,1.89,2.24,2.24
4.38,8.29,-1.89,3.78,4.55,4.55
4.37,8.44,-1.94,4.83,4.06,4.06
4.42,8.60,-1.96,1.61,1.12,0.07
4.34,8.41,-1.95,-2.31,-2.59,-3.22
4.18,8.25,-1.97,-4.34,-4.34,-4.34
4.02,8.27,-1.88,-4.97,-4.97,-4.97
3.87,8.27,-1.74,-8.40,-8.40,-8.40
3.75,8.12,-1.70,-11.62,-11.62,-11.62
3.74,7.72,-1.59,-15.12,-15.12,-15.12
3.77,7.67,-1.41,-16.80,-16.80,-16.80
3.77,7.96,-1.03,-20.02,-21.28,-21.28
3.56,7.97,-0.66,-25.13,-25.13,-26.25
3.21,7.92,-0.46,-28.35,-28.35,-28.91
2.40,7.84,-0.39,-30.38,-30.38,-30.38
1.02,7.82,-0.25,-32.06,-32.06,-32.06
0.32,7.42,-0.14,-32.34,-31.92,-31.92
0.17,6.97,0.16,-29.75,-29.40,-29.40
-0.13,7.15,0.34,-28.00,-28.00,-27.79
-0.55,7.36,0.41,-29.40,-29.40,-29.40
-1.18,7.70,0.49,-36.05,-39.55,-39.55
-1.71,7.03,0.77,-52.08,-52.08,-56.42
-2.58,5.48,0.86,-66.71,-66.71,-68.25
-3.42,3.48,0.77,-65.73,-65.73,-65.73
-4.51,1.97,0.94,-43.33,-43.33,-43.33
-6.97,2.67,2.60,-22.54,-22.54,-22.68
-7.04,4.10,2.78,-28.21,-28.21,-28.21
-7.39,4.27,2.93,-43.47,-43.47,-43.47
-8.05,3.16,3.19,-63.14,-63.14,-63.14
-8.18,2.23,3.68,-83.44,-84.91,-84.91
-8.25,0.61,3.73,-90.37,-90.51,-90.51
-8.26,-1.35,3.61,-88.34,-87.71,-87.71
-8.08,-4.01,4.19,-83.30,-83.30,-83.23
-7.54,-5.27,4.70,-82.53,-81.97,-81.55
-6.35,-4.78,5.05,-79.45,-79.45,-78.47
-6.03,-5.63,5.36,-77.28,-77.28,-77.28
-5.32,-8.89,5.69,-80.29,-80.29,-81.06
-5.01,-10.49,6.43,-85.19,-86.38,-86.94
-4.51,-10.87,6.91,-87.50,-87.50,-87.43
-4.53,-10.15,6.98,-88.76,-88.76,-88.76
-4.75,-9.84,7.48,-100.94,-100.94,-100.94
-4.35,-11.12,8.19,-125.72,-125.72,-125.7
-3.19,-11.58,8.40,-136.78,-136.78,-136.7
-2.31,-12.66,8.10,-135.10,-133.63,-133.6
-1.16,-13.25,7.36,-112.14,-109.48,-109.4
0.01,-13.28,7.53,-93.66,-93.66,-91.70
1.26,-13.73,7.64,-81.62,-81.62,-81.62
2.07,-14.49,6.93,-62.44,-62.44,-62.44
1.76,-14.60,6.21,-47.25,-47.25,-47.25
1.05,-14.01,5.60,-33.39,-28.63,-28.63
0.90,-13.25,5.23,-22.61,-21.63,-20.16
1.20,-12.21,5.16,-18.27,-18.27,-18.27
1.18,-11.78,4.83,-19.25,-19.25,-19.25
0.66,-11.61,4.57,-19.60,-19.53,-19.53
0.06,-11.69,4.30,-17.78,-17.22,-17.22
-0.65,-10.73,3.39,5.53,7.70,8.89
-0.67,-9.64,3.45,13.37,13.37,15.47
-0.61,-9.23,3.64,17.85,17.85,18.20
-0.53,-8.89,3.50,20.44,20.44,20.65
-0.56,-8.23,3.23,22.26,22.26,22.26
-0.58,-7.87,3.35,19.95,19.95,19.39
-0.51,-8.03,3.53,15.68,14.98,14.98
-0.12,-8.16,3.60,8.89,8.89,8.40
0.31,-8.07,3.42,6.65,6.65,6.65
0.56,-8.04,3.16,7.07,7.35,7.35
0.68,-8.35,3.02,9.94,10.08,10.08
0.80,-8.44,3.14,11.41,11.55,11.55
1.25,-8.52,3.14,12.18,12.32,12.32
1.57,-8.27,2.89,12.74,12.74,12.74
1.58,-8.09,2.76,11.90,11.90,11.90
1.74,-7.72,2.98,8.96,7.77,7.77
1.88,-7.88,3.45,2.45,2.45,1.68
1.79,-8.33,3.34,-4.83,-4.83,-4.83
1.78,-8.52,3.20,-6.79,-6.79,-6.79
1.92,-8.58,3.25,-7.84,-7.84,-7.84
2.02,-8.95,3.35,-8.75,-9.03,-9.03
1.85,-9.15,3.32,-9.80,-9.80,-9.80
1.73,-8.82,3.18,-6.51,-5.88,-5.88
1.50,-8.87,3.03,-2.24,-2.24,-2.24
1.51,-9.51,3.17,0.56,0.56,0.56
1.71,-9.82,3.65,-0.07,-0.07,-0.07
1.68,-9.68,3.60,-1.54,-1.54,-1.54
1.36,-9.25,3.45,-1.26,-1.26,-0.84
0.96,-9.74,2.99,2.38,2.38,2.38
1.05,-10.41,3.52,8.68,8.68,8.68
0.94,-10.41,4.08,8.68,8.05,8.05
0.33,-10.05,4.35,7.00,7.00,7.00
-0.12,-9.71,4.03,12.39,12.39,12.39
-0.32,-10.39,4.02,17.15,18.69,18.69
-0.31,-10.89,4.59,21.91,21.91,22.54
-0.74,-11.16,4.95,26.25,26.25,28.28
-1.69,-10.90,4.33,38.15,38.15,38.15
-2.75,-9.77,3.67,54.88,54.88,54.88
-3.59,-8.69,4.07,55.23,55.23,55.23
-4.46,-7.29,4.35,47.32,43.89,43.89
-6.37,-6.02,3.83,24.08,22.82,22.82
-7.60,-5.45,3.63,13.23,8.26,8.26
-8.98,-6.17,3.25,-3.85,-3.85,-3.85
-9.64,-6.79,2.64,-15.68,-15.68,-15.68
-9.94,-6.81,2.40,-20.58,-21.91,-21.91
-9.96,-6.78,2.26,-25.48,-25.48,-25.48
-9.66,-7.14,2.09,-23.87,-23.52,-23.52
-8.98,-7.58,1.95,-20.72,-20.37,-20.37
-8.04,-7.18,1.94,-18.83,-18.69,-18.69
-7.25,-6.41,1.95,-19.81,-20.51,-20.86
-6.58,-5.78,2.14,-22.96,-22.96,-23.80
-6.31,-5.93,2.29,-23.94,-23.94,-23.24
-6.14,-6.48,2.31,-21.07,-21.07,-21.07
-5.93,-6.57,2.26,-16.38,-16.38,-16.38
-5.85,-6.51,2.21,-11.97,-11.97,-11.97
-6.14,-5.87,2.19,-5.88,-5.32,-5.32
-6.57,-5.48,2.03,-1.82,-1.47,-1.47
-7.03,-5.24,1.92,-0.14,-0.14,-0.14
-7.57,-4.96,1.90,-3.29,-3.29,-3.29
-8.13,-4.80,1.77,-7.07,-7.07,-7.07
-8.76,-4.55,1.71,-8.61,-8.89,-8.89
-9.43,-4.15,1.78,-9.24,-9.24,-9.24
-9.90,-3.97,1.87,-9.80,-9.80,-9.80
-10.45,-4.00,1.89,-8.19,-8.19,-8.19
-11.10,-4.02,1.98,-5.46,-5.46,-5.46
-11.46,-3.57,2.12,-0.84,-0.84,-0.84
-11.84,-2.99,2.31,-1.75,-2.52,-2.52
-12.23,-2.89,2.29,-5.18,-5.18,-5.67
-12.74,-3.30,2.06,-6.23,-6.23,-6.02
-12.97,-3.26,1.81,-3.92,-3.92,-3.01
-13.12,-2.97,1.64,0.07,0.07,0.07
-13.40,-2.19,1.47,1.61,1.61,1.61
-13.65,-1.74,1.21,2.45,2.45,2.45
-13.69,-1.19,1.03,4.27,4.27,4.34
-13.35,-0.11,1.01,3.50,3.50,3.50
-12.84,0.65,0.90,-3.36,-3.36,-3.36
-12.51,0.95,0.73,-8.96,-9.66,-9.66
-12.08,0.77,0.53,-12.11,-13.09,-13.09
-11.77,0.51,0.34,-13.65,-13.65,-13.65
-11.73,0.05,0.25,-12.39,-11.62,-11.62
-11.35,-0.49,0.06,-5.81,-5.81,-3.08
-10.14,0.08,0.10,6.79,7.84,7.84
-8.99,1.30,0.29,11.41,11.13,10.92
-8.04,2.00,0.57,7.84,7.84,5.81
-7.23,2.11,0.67,3.22,3.22,3.22
-6.40,1.94,0.66,7.77,7.77,7.77
-5.68,2.19,0.76,12.25,12.25,12.25
-5.31,2.59,0.99,14.98,15.47,16.45
-5.11,3.17,0.96,19.18,19.74,19.74
-4.55,3.74,0.88,21.91,21.91,21.91
-4.41,3.78,0.81,23.80,23.80,24.36
-4.30,4.30,0.83,29.75,29.75,29.75
-4.22,5.31,0.77,31.22,31.22,31.22
-4.03,6.05,0.64,29.75,29.75,29.75
-3.89,6.37,0.54,26.39,26.39,26.39
-4.04,6.85,0.35,26.81,26.81,26.81
-4.16,7.44,0.10,28.49,28.49,28.35
-4.35,8.35,-0.04,25.69,25.69,25.69
-3.91,9.02,-0.26,19.53,19.53,19.53
-3.44,9.19,-0.28,13.79,13.79,13.79
-3.07,9.20,-0.38,10.92,10.22,10.22
-2.84,9.24,-0.52,9.10,9.10,9.17
-2.11,9.07,-0.78,10.43,10.57,10.57
-1.00,9.11,-0.93,9.17,9.17,9.24
-0.50,9.21,-1.00,8.47,8.47,8.47
0.01,8.93,-1.01,8.26,8.19,8.19
0.70,8.79,-1.00,7.56,7.56,7.07
2.74,8.32,-1.26,1.26,0.84,0.84
3.07,8.68,-1.30,-2.52,-3.36,-3.57
3.28,8.42,-1.45,-3.71,-3.57,-3.43
3.54,8.56,-1.25,-8.96,-8.96,-9.52
3.33,8.80,-1.05,-12.81,-13.23,-13.23
3.04,8.85,-0.85,-15.40,-15.82,-16.10
2.33,8.34,-0.22,-20.30,-20.44,-20.44
2.06,7.81,-0.14,-18.55,-17.99,-17.99
1.74,7.47,-0.11,-14.70,-13.37,-12.60
1.28,7.44,-0.07,-7.63,-7.63,-7.63
1.12,7.73,0.12,-4.27,-4.20,-4.20
0.94,8.29,0.22,-4.55,-4.76,-4.76
0.56,8.40,0.10,-4.69,-4.83,-4.83
-0.01,8.70,0.11,-7.00,-7.63,-7.63
-0.89,8.69,0.21,-12.67,-13.16,-13.16
-1.63,8.26,0.22,-14.84,-14.84,-14.84
-2.35,7.86,0.19,-12.18,-11.83,-11.83
-2.95,7.83,0.11,-11.06,-11.06,-11.34
-3.46,7.66,0.03,-14.00,-14.98,-14.98
-4.10,7.10,-0.15,-15.19,-15.19,-14.21
-4.73,6.33,-0.21,-7.84,-7.84,-7.84
-5.17,5.90,-0.03,4.76,4.76,4.76
-5.54,5.95,0.25,6.79,6.79,6.79
-5.81,6.35,0.21,3.92,3.92,3.92
-6.00,6.46,-0.04,2.59,2.38,2.38
-6.01,6.66,-0.02,-0.35,-3.29,-3.29
-6.39,5.69,0.47,-11.41,-11.41,-11.41
-6.68,4.44,0.50,-12.32,-12.32,-12.32
-6.85,3.88,0.32,-4.27,-4.27,-4.27
-6.93,3.56,0.40,-1.75,-1.75,-1.75
-7.59,2.50,0.71,-4.13,-4.13,-4.13
-8.10,1.86,0.88,-3.57,-3.57,-3.57
-8.30,1.77,0.47,1.26,1.61,1.61
-8.15,2.02,0.57,1.05,0.42,0.42
-8.46,1.08,1.27,-9.03,-9.03,-9.87
-8.68,0.27,1.47,-12.67,-12.67,-12.67
-8.45,-0.34,1.44,-9.24,-9.24,-9.24
-8.42,-1.26,1.48,-6.86,-7.21,-7.21
-8.88,-3.36,1.95,-10.71,-11.13,-11.13
-8.85,-3.82,2.09,-12.18,-11.97,-11.97
-8.66,-3.91,2.13,-9.59,-9.59,-9.59
-8.85,-4.32,3.64,-8.47,-8.47,-8.47
-8.70,-4.06,2.77,-16.10,-16.10,-16.10
-8.93,-5.45,3.41,-24.08,-24.08,-24.08
-9.26,-9.61,3.22,-20.30,-20.30,-20.30
-9.83,-10.98,2.91,-10.99,-10.99,-10.99
-9.42,-9.87,2.70,-7.42,-7.42,-7.49
-8.61,-8.25,2.85,-14.49,-14.49,-18.62
-8.07,-7.18,3.54,-42.28,-42.28,-42.28
-8.06,-8.14,3.80,-68.81,-68.81,-68.81
-8.15,-10.15,3.38,-73.01,-72.03,-72.03
-7.59,-11.63,3.46,-61.39,-61.39,-61.39
-7.06,-12.49,3.66,-43.61,-43.61,-41.93
-6.66,-11.38,4.00,-34.23,-34.23,-33.60
-6.26,-9.78,4.14,-32.55,-32.55,-32.55
-6.26,-8.77,4.35,-37.87,-37.87,-37.87
-6.54,-10.00,4.75,-44.73,-44.73,-44.73
-6.59,-11.33,4.77,-40.11,-40.11,-40.11
-6.59,-11.26,4.62,-25.27,-25.27,-25.27
-6.49,-10.60,4.51,-9.45,-9.45,-9.45
-6.45,-9.74,4.19,3.15,4.13,4.13
-6.45,-9.48,3.83,8.96,8.96,9.87
-6.55,-9.56,3.48,13.51,13.93,13.93
-6.75,-9.82,3.24,18.97,18.97,19.88
-7.17,-10.04,3.17,24.85,24.85,25.55
-7.36,-9.16,2.85,34.51,34.51,34.51
-7.58,-9.32,3.20,29.40,29.40,29.40
-8.02,-9.50,3.65,23.94,23.94,23.94
-8.45,-9.77,3.71,21.84,21.84,21.84
-8.26,-9.79,3.63,22.26,22.26,22.26
-8.51,-9.71,3.44,22.75,22.82,22.82
-9.10,-9.99,3.38,24.15,24.43,24.43
-9.74,-10.01,3.35,25.90,26.74,26.74
-10.37,-9.05,2.90,26.74,26.74,26.04
-10.74,-8.75,2.67,24.78,24.78,24.64
-11.10,-8.43,2.41,25.27,25.62,25.62
-11.50,-7.99,2.19,28.35,28.70,28.70
-11.84,-7.76,1.94,29.05,28.98,28.98
-11.37,-6.48,1.82,28.56,28.49,28.49
-10.98,-5.60,1.81,27.30,27.30,26.32
-11.01,-5.24,1.78,24.50,24.50,24.15
-10.93,-4.97,1.60,24.08,24.08,24.64
-10.61,-4.43,1.39,30.03,30.03,31.08
-9.79,-3.28,1.36,36.68,36.68,37.10
-9.83,-3.04,1.37,37.38,37.17,37.03
-9.68,-2.77,1.23,37.10,37.10,37.80
-8.87,-2.24,1.14,40.39,40.39,41.02
-6.35,-1.25,1.04,44.94,44.94,45.50
-6.13,-0.53,1.00,46.55,46.55,46.41
-5.02,0.24,1.00,45.64,45.64,45.71
-3.95,0.74,0.83,48.37,48.37,48.37
-2.91,1.29,0.64,50.68,51.24,51.24
-2.03,2.12,0.40,51.80,51.80,51.66
-1.26,2.89,0.10,50.40,50.40,50.40
-0.28,3.87,-0.08,49.07,49.07,49.07
0.83,5.25,-0.24,42.00,42.00,42.00
2.29,6.44,-0.30,33.32,31.92,31.92
3.70,6.90,-0.35,23.87,23.10,23.10
4.66,6.76,-0.37,20.09,20.09,20.09
5.54,6.77,-0.48,19.88,19.95,20.16
6.29,6.88,-0.73,20.58,20.58,20.58
6.44,6.71,-0.86,22.05,22.26,22.26
6.88,6.75,-0.93,22.40,22.19,22.19
7.24,7.34,-0.97,18.90,18.20,18.20
6.83,7.92,-1.10,15.26,14.14,13.72
6.36,8.19,-1.32,11.69,11.27,10.43
6.27,8.53,-1.36,6.65,6.65,5.67
6.03,8.30,-1.53,-3.85,-3.85,-4.41
5.30,8.04,-1.79,-6.16,-6.16,-6.16
4.52,8.01,-1.92,-5.39,-5.39,-5.39
3.87,8.26,-1.82,-5.60,-5.95,-5.95
3.24,8.72,-1.58,-8.61,-8.61,-9.87
2.76,8.96,-1.56,-12.74,-13.16,-13.16
2.32,8.06,-1.60,-10.57,-10.57,-10.29
2.33,7.90,-1.36,-9.52,-9.52,-9.73
2.32,8.28,-1.01,-13.02,-13.02,-13.65
2.06,8.51,-0.90,-18.41,-18.41,-18.41
1.56,8.26,-0.89,-21.00,-21.00,-21.00
1.01,8.17,-0.61,-23.59,-23.59,-23.59
0.53,8.29,-0.28,-28.00,-28.00,-28.00
0.10,8.15,-0.07,-33.25,-33.25,-33.25
-0.45,7.95,0.00,-37.38,-37.38,-38.15
-0.98,7.77,0.09,-39.48,-39.48,-39.62
-2.26,6.65,0.87,-39.13,-39.13,-38.92
-3.07,6.10,0.89,-39.06,-39.06,-39.06
-3.91,4.89,0.89,-39.06,-38.50,-38.50
-4.85,4.39,0.84,-34.37,-33.18,-30.52
-6.20,4.11,0.73,-21.28,-21.28,-21.28
-7.33,4.21,0.82,-16.52,-16.52,-16.52
-7.76,4.32,0.81,-18.13,-18.13,-18.13
-8.10,4.01,0.94,-20.37,-21.56,-21.56
-8.30,3.75,0.91,-25.62,-25.62,-26.88
-8.46,2.50,0.78,-30.31,-30.31,-30.31
-8.85,1.54,0.93,-27.44,-27.44,-27.44
-9.25,0.96,1.03,-22.12,-20.30,-20.30
-8.85,1.37,1.29,-17.08,-17.01,-17.01
-8.40,1.33,1.52,-19.46,-22.05,-22.05
-8.21,0.33,1.55,-28.21,-28.21,-28.21
-8.00,-0.23,1.23,-31.43,-31.43,-31.43
-7.99,-1.56,1.06,-35.49,-35.49,-35.49
-8.22,-2.70,1.41,-39.97,-39.97,-40.81
-8.37,-3.57,1.85,-44.87,-44.87,-44.87
-7.98,-3.91,1.89,-43.26,-43.26,-43.26
-7.98,-4.25,1.90,-40.81,-40.81,-40.81
-8.02,-4.15,2.27,-43.82,-45.64,-45.64
-8.24,-5.66,2.65,-52.15,-52.64,-52.64
-8.57,-8.12,2.79,-52.57,-52.57,-51.80
-9.35,-10.54,2.93,-48.72,-48.72,-47.39
-9.81,-10.44,2.78,-47.74,-47.74,-47.74
-9.38,-9.41,2.69,-58.59,-58.59,-58.59
-9.02,-9.56,2.89,-69.58,-73.15,-73.15
-8.52,-10.48,3.07,-80.64,-82.18,-82.18
-8.22,-11.37,2.74,-83.79,-83.79,-83.16
-7.85,-12.82,2.79,-79.24,-78.05,-78.05
-7.20,-14.09,2.95,-61.46,-59.22,-59.22
-6.52,-13.18,3.12,-45.85,-45.85,-43.89
-5.97,-11.72,3.61,-32.69,-32.69,-32.69
-5.51,-11.16,3.84,-30.52,-30.52,-30.52
-5.31,-11.43,3.81,-26.74,-26.74,-24.71
-5.24,-11.54,3.57,-15.68,-15.68,-15.68
-5.30,-11.02,3.51,-4.83,-4.83,-4.83
-5.36,-10.92,3.45,-0.49,-0.49,1.12
-5.41,-10.54,3.16,6.51,6.51,6.51
-5.48,-9.69,2.73,14.63,14.63,14.63
-5.59,-9.28,2.50,17.15,17.15,17.43
-5.71,-9.32,2.24,17.08,17.08,16.59
-5.86,-9.92,1.97,15.61,15.61,15.61
-6.03,-10.01,1.66,16.80,17.36,17.64
-6.50,-10.08,1.32,19.95,19.95,19.95
-6.74,-9.83,1.41,20.79,20.79,20.79
-7.03,-9.86,1.43,20.02,19.46,19.46
-7.39,-10.08,1.42,18.41,17.99,17.99
-7.56,-10.01,1.45,17.50,17.50,17.50
-7.80,-9.38,2.05,17.57,17.57,17.85
-7.80,-9.25,2.13,18.41,18.41,18.41
-8.00,-9.64,2.09,20.86,20.86,20.86
-8.15,-9.53,2.05,24.99,24.99,24.99
-8.25,-8.39,2.22,26.25,26.25,26.25
-8.14,-7.48,2.42,21.21,20.51,20.51
-8.10,-6.83,2.32,16.66,14.98,14.98
-8.26,-6.68,2.16,13.58,13.65,13.86
-8.60,-6.41,1.98,15.05,15.33,15.33
-8.91,-5.64,1.88,18.90,19.25,19.25
-9.16,-5.23,1.86,20.65,20.65,20.65
-9.48,-4.71,1.73,21.00,21.00,21.00
-9.60,-4.02,1.45,21.07,21.14,21.14
-9.73,-2.78,1.05,22.96,23.17,23.17
-9.30,-1.60,0.99,20.93,20.93,20.16
-7.38,-0.18,0.98,14.84,14.84,13.86
-8.26,0.25,0.85,7.63,7.63,5.46
-8.34,0.27,0.66,2.38,2.38,2.38
-8.61,0.02,0.52,1.54,1.54,1.54
-8.29,0.40,0.54,5.46,5.46,5.46
-7.52,1.12,0.61,11.97,13.02,13.02
-6.48,2.16,0.67,23.73,23.73,24.36
-6.55,2.57,0.65,26.25,26.25,26.25
-6.81,3.31,0.47,29.47,29.47,29.47
-6.70,4.18,0.37,31.64,31.64,31.64
-6.24,5.69,0.11,31.57,31.57,31.57
-5.50,7.24,-0.32,15.26,15.26,14.21
-5.58,7.05,-0.54,10.57,9.73,9.38
-5.44,6.98,-0.61,9.66,9.66,10.22
-5.00,7.35,-0.48,9.80,9.80,9.45
-4.43,7.82,-0.39,2.94,2.94,1.89
-3.88,7.92,-0.34,-5.25,-5.25,-6.09
-3.46,7.93,-0.27,-11.55,-11.55,-14.70
-3.20,7.50,-0.17,-17.99,-17.99,-17.99
-3.05,6.59,-0.11,-15.26,-15.26,-15.26
-3.03,6.34,-0.02,-7.42,-7.42,-7.42
-3.08,6.56,0.08,-1.26,-1.26,-1.26
-2.90,6.99,0.09,1.68,1.68,1.68
-2.98,7.11,0.00,4.76,4.76,4.76
-3.41,7.25,-0.10,7.77,7.77,7.77
-4.28,7.32,-0.25,10.36,10.36,10.36
-5.41,7.21,-0.41,11.55,11.55,11.55
-6.45,7.67,-0.61,11.62,10.99,10.99
-6.80,7.74,-0.48,8.75,8.75,8.75
-6.75,7.97,-0.34,3.78,3.78,3.78
-6.39,7.95,-0.33,-3.29,-3.29,-3.29
-6.27,7.50,-0.37,-8.54,-9.31,-9.31
-6.27,6.88,-0.32,-12.67,-12.67,-12.25
-6.34,6.15,-0.31,-8.68,-6.51,-5.25
-6.36,6.19,-0.22,-0.35,0.84,0.84
-6.05,6.77,-0.05,1.33,1.33,0.63
-5.60,7.07,0.12,-2.52,-2.52,-3.01
-5.53,6.83,0.14,-6.37,-6.79,-6.79
-5.82,6.22,0.09,-5.88,-5.88,-4.97
-6.25,5.56,0.06,-1.61,-1.61,-1.61
-6.63,5.39,0.05,3.64,3.64,4.97
-6.70,5.88,0.08,7.28,7.28,7.28
-6.58,6.37,-0.03,4.48,4.48,4.48
-6.62,5.86,0.06,-0.98,-0.98,-0.98
-6.88,5.08,0.07,-1.61,-1.61,-1.61
-7.07,4.41,0.04,1.75,3.43,3.43
-6.96,4.42,0.10,8.26,8.26,9.31
-7.04,4.30,0.19,7.98,7.98,7.98
-7.24,3.68,0.13,4.83,4.76,4.76
-7.39,2.92,0.13,6.30,7.35,7.84
-7.41,2.71,0.03,10.50,10.50,10.99
-7.56,2.86,0.22,8.40,7.63,7.63
-7.97,2.51,0.51,-3.64,-3.64,-3.64
-8.41,2.10,0.45,-10.22,-11.55,-11.55
-8.69,1.74,0.47,-15.26,-16.03,-16.03
-8.90,1.39,0.64,-24.01,-24.01,-24.01
-9.24,0.17,0.80,-28.35,-28.35,-28.35
-8.90,-0.34,0.95,-23.24,-23.24,-23.24
-8.47,-0.82,1.20,-17.50,-16.10,-16.10
-8.38,-1.81,1.20,-12.95,-12.25,-12.25
-8.46,-2.63,1.43,-10.64,-10.22,-10.22
-8.34,-2.92,1.76,-9.24,-9.31,-9.31
-8.05,-2.73,2.07,-10.92,-11.76,-11.76
-8.37,-4.02,2.42,-15.12,-16.52,-16.52
-9.01,-5.37,2.38,-20.02,-20.02,-20.93
-8.92,-5.72,2.16,-23.17,-23.38,-23.38
-8.62,-5.53,2.65,-30.17,-30.17,-31.43
-8.73,-6.12,3.22,-38.78,-41.65,-42.84
-9.44,-7.67,3.25,-48.86,-49.28,-49.28
-9.55,-8.16,2.81,-49.21,-49.21,-48.65
-9.00,-7.40,2.54,-43.26,-43.26,-43.12
-8.44,-6.76,3.01,-49.00,-49.00,-50.40
-7.68,-6.30,3.13,-64.33,-64.33,-64.33
-7.03,-6.58,2.86,-80.92,-80.92,-80.92
-6.66,-7.77,2.30,-93.94,-93.94,-93.94
-6.12,-8.78,1.57,-100.73,-101.43,-101.43
-5.56,-9.84,1.06,-103.53,-103.53,-103.53
-5.14,-11.40,0.55,-100.59,-100.59,-100.1
-4.47,-11.84,0.09,-95.06,-95.06,-95.06
-3.93,-11.91,-0.27,-85.40,-85.40,-85.40
-3.41,-12.00,-0.09,-80.29,-80.29,-80.29
-2.84,-12.78,0.18,-69.65,-67.76,-67.76
-2.33,-13.28,0.20,-53.48,-50.61,-50.61
-2.19,-12.92,0.50,-26.88,-26.88,-24.08
-2.27,-11.81,0.90,-9.87,-9.87,-8.05
-2.42,-10.88,1.32,1.68,1.68,2.38
-2.74,-10.62,1.17,4.97,5.39,5.39
-3.10,-10.43,1.04,7.91,7.91,8.40
-3.38,-10.04,0.93,11.13,11.13,11.27
-3.64,-9.98,0.92,11.34,11.34,11.48
-3.83,-10.05,0.83,11.83,12.25,12.25
-4.04,-9.96,0.69,14.28,15.19,15.19
-4.12,-9.61,0.55,17.50,17.71,17.71
-4.16,-9.44,0.42,17.99,17.71,17.29
-4.27,-9.70,0.24,14.91,14.91,14.70
-4.26,-9.60,0.21,13.58,13.58,13.58
-4.27,-9.63,0.16,13.58,13.58,13.58
-4.36,-9.65,0.16,12.95,12.46,12.46
-4.33,-9.45,0.28,10.29,9.38,9.38
-4.39,-9.60,0.16,6.30,6.30,5.95
-4.42,-9.76,0.02,4.83,4.83,4.83
-4.47,-10.25,0.02,7.49,7.49,7.49
-4.51,-10.58,0.17,11.27,11.97,11.97
-4.55,-10.62,0.38,18.62,18.62,19.39
-4.69,-10.52,0.63,23.17,23.17,23.59
-4.83,-10.35,0.99,25.34,25.90,26.04
-5.09,-10.62,1.47,27.30,27.30,28.63
-5.56,-11.12,1.86,32.69,32.69,33.39
-5.83,-11.08,1.88,39.76,39.76,40.60
-6.03,-10.87,1.86,45.85,45.85,46.34
-6.41,-10.43,1.91,46.62,46.62,46.41
-7.11,-9.71,2.06,43.33,43.33,42.49
-7.74,-9.65,2.03,37.80,37.80,37.80
-8.44,-9.77,1.91,37.17,37.31,37.31
-9.13,-9.66,1.68,37.94,37.94,38.08
-9.67,-8.80,1.51,36.75,36.40,36.40
-9.85,-8.10,1.48,35.14,35.14,34.65
-10.18,-7.37,1.54,33.32,33.32,33.32
-10.44,-6.85,1.37,32.27,31.57,31.57
-10.72,-6.36,1.35,28.91,27.72,27.72
-10.83,-6.22,1.24,24.99,24.43,24.43
-10.84,-6.18,1.12,23.66,23.66,23.52
-11.38,-6.58,0.99,23.10,23.10,22.82
-11.84,-5.83,1.11,23.73,24.01,24.01
-11.86,-5.52,1.15,27.72,28.28,28.28
-11.32,-4.23,1.41,33.46,33.46,33.67
-10.33,-2.71,1.65,33.60,33.11,32.62
-9.60,-1.56,1.98,30.10,30.10,28.63
-9.21,-1.18,2.05,27.51,27.51,27.51
-8.49,-0.97,2.09,30.45,30.45,30.45
-7.81,-1.07,2.11,36.82,36.82,38.99
-6.84,-0.95,2.19,47.32,48.58,48.58
-5.90,-0.06,2.38,57.89,57.89,58.52
-4.87,0.89,2.44,60.76,60.76,60.90
-4.07,1.66,2.53,60.48,60.48,60.48
-3.11,2.62,2.29,61.74,61.74,61.74
-2.63,3.12,1.89,65.17,65.17,65.17
-1.88,3.89,1.62,69.02,69.02,69.02
-1.15,4.80,1.34,70.28,70.00,70.00
-0.45,5.91,1.25,66.22,65.38,65.38
0.09,6.55,1.00,56.21,56.21,55.16
0.67,6.59,0.78,51.38,49.98,49.35
1.34,6.82,0.49,45.57,45.57,42.77
2.87,7.40,0.17,33.53,33.53,33.46
3.38,7.63,0.10,32.69,32.69,32.69
3.77,8.02,0.10,32.34,32.20,32.20
4.01,8.40,0.05,32.27,32.27,32.06
4.01,8.77,0.12,31.08,31.08,30.03
3.54,9.61,0.18,19.74,19.74,19.74
3.30,9.40,0.04,14.63,14.63,14.63
2.89,9.26,-0.03,13.65,13.65,13.65
2.25,9.60,-0.08,12.46,12.46,12.32
1.78,9.74,-0.18,9.73,9.73,9.73
1.37,9.80,-0.17,5.67,5.67,5.11
0.99,9.65,-0.22,1.12,0.21,0.21
0.34,9.22,-0.22,-0.07,-0.07,-0.14
-0.13,9.30,-0.02,1.05,1.05,1.05
-0.49,9.49,0.19,1.82,1.61,1.61
-0.83,9.62,0.28,0.49,-0.07,-0.07
-1.24,9.27,0.34,7.00,7.00,7.42
-1.17,9.43,0.33,11.06,11.06,11.06
-1.09,9.80,0.39,12.53,12.53,12.53
-0.97,9.83,0.48,12.81,12.81,12.95
-0.83,9.59,0.43,17.29,17.29,35.21
-0.83,9.33,0.24,24.15,24.15,24.15
-0.98,9.40,0.10,33.74,33.74,33.74
-1.02,9.57,0.08,38.57,38.57,38.57
-0.82,9.82,-0.03,41.02,41.72,41.72
-0.61,10.03,-0.23,42.07,42.07,42.07
-0.46,10.35,-0.44,36.96,36.96,36.96
-0.09,10.11,-1.07,29.40,29.40,29.54
0.42,9.90,-1.38,29.54,29.54,29.54
0.98,10.15,-1.45,24.99,24.99,24.99
1.42,10.40,-1.65,15.75,15.75,13.16
1.90,10.42,-1.92,4.34,3.08,3.08
2.15,10.12,-2.07,-6.51,-6.51,-6.51
2.36,9.54,-2.02,-12.25,-12.53,-12.53
2.54,9.07,-1.89,-13.23,-13.09,-13.09
2.64,8.95,-1.72,-12.18,-12.18,-11.83
2.80,9.05,-1.57,-11.34,-11.34,-11.34
2.94,9.16,-1.39,-11.48,-11.48,-11.48
2.91,9.12,-1.23,-12.32,-12.32,-12.39
2.67,9.05,-1.15,-11.97,-11.97,-11.76
2.24,8.93,-0.88,-9.10,-8.68,-8.68
2.00,8.87,-0.73,-6.02,-6.02,-5.88
1.81,8.95,-0.69,-5.11,-5.11,-5.18
1.59,9.08,-0.68,-5.95,-5.95,-6.02
1.39,9.01,-0.73,-7.63,-7.63,-7.70
1.17,8.95,-0.73,-8.47,-8.47,-8.54
0.94,8.84,-0.79,-9.10,-9.10,-9.17
0.76,8.49,-0.61,-4.62,-4.62,-4.62
0.53,8.69,-0.54,-4.97,-4.97,-4.97
0.21,8.79,-0.54,-7.91,-9.31,-9.31
-0.18,8.46,-0.52,-15.47,-15.47,-15.47
-0.53,7.81,-0.58,-18.20,-18.20,-18.20
-0.83,7.55,-0.63,-16.24,-16.24,-16.24
-1.28,7.72,-0.63,-15.47,-15.47,-15.47
-1.74,7.84,-0.46,-19.04,-19.81,-19.81
-2.30,7.24,-0.22,-26.67,-27.02,-27.02
-3.06,6.89,-0.08,-23.38,-23.31,-23.31
-3.79,6.73,0.22,-30.80,-31.71,-31.71
-4.20,6.01,0.40,-38.22,-39.55,-39.55
-5.59,4.16,0.50,-34.09,-34.09,-34.09
-6.36,3.59,0.81,-30.17,-30.17,-30.17
-7.08,2.92,0.88,-28.35,-27.30,-27.30
-7.65,2.36,0.90,-22.82,-22.12,-22.12
-8.13,2.17,0.94,-19.25,-19.04,-19.04
-8.62,2.04,1.01,-19.88,-19.88,-20.09
-9.14,1.36,1.10,-21.35,-21.35,-21.35
-9.35,0.80,1.14,-21.63,-21.63,-21.49
-9.43,0.12,1.25,-21.77,-21.77,-21.77
-9.59,-0.55,1.38,-22.12,-21.98,-21.98
-9.47,-1.13,1.33,-20.30,-20.30,-19.39
-9.62,-2.31,1.25,-14.77,-14.77,-14.77
-10.11,-3.45,1.47,-11.69,-11.69,-11.69
-10.38,-3.94,1.52,-8.26,-7.63,-7.63
-10.01,-2.93,1.46,0.00,0.70,0.70
-9.44,-2.22,1.74,1.68,1.12,1.12
-9.66,-3.27,2.28,-2.80,-5.60,-5.60
-10.63,-5.71,2.17,-9.66,-9.66,-9.66
-8.48,-7.09,2.21,1.26,1.26,0.28
-9.09,-9.85,2.36,-2.87,-3.43,-4.27
-8.72,-9.50,2.12,-3.71,-3.29,-3.29
-7.95,-7.86,1.85,1.26,1.19,1.19
-7.17,-7.44,2.91,-5.18,-6.65,-6.65
-7.51,-9.85,3.35,-16.38,-17.99,-17.99
-7.66,-10.35,3.43,-26.46,-26.46,-26.46
-7.42,-9.59,3.12,-25.20,-25.20,-24.92
-6.91,-8.60,3.09,-25.69,-25.69,-25.69
-6.68,-8.15,3.32,-36.19,-37.66,-37.66
-6.74,-8.84,3.23,-44.80,-48.16,-48.16
-6.72,-8.93,2.66,-51.52,-51.94,-52.29
-6.31,-9.07,2.13,-51.10,-51.10,-50.68
-5.80,-9.89,2.07,-44.73,-44.73,-43.82
-5.25,-10.22,1.84,-38.57,-38.57,-38.57
-5.02,-10.25,1.61,-35.21,-35.21,-35.21
-4.87,-10.63,1.57,-33.32,-32.41,-32.41
-4.66,-11.24,1.36,-27.51,-27.51,-25.41
-4.41,-11.49,1.41,-17.85,-17.85,-15.19
-4.15,-10.00,1.82,2.17,2.17,2.17
-4.04,-9.25,1.85,0.63,0.63,0.63
-3.97,-9.02,1.74,-2.80,-2.80,-2.80
-3.89,-8.92,1.66,-5.53,-5.53,-5.53
-3.87,-9.25,1.48,-8.33,-8.33,-8.33
-4.00,-9.59,1.35,-8.96,-8.96,-8.96
-4.10,-9.61,1.33,-7.28,-7.28,-7.28
-4.24,-9.47,1.35,-5.74,-5.46,-5.46
-4.34,-9.25,1.51,-5.32,-5.32,-5.74
-4.50,-9.23,1.55,-7.84,-7.84,-7.84
-4.70,-9.41,1.57,-9.59,-9.94,-9.94
-4.87,-9.92,1.56,-9.31,-9.31,-8.75
-5.09,-10.37,1.66,-5.88,-5.88,-4.83
-5.63,-10.56,1.67,-0.70,-0.14,-0.14
-5.83,-10.10,1.65,5.18,5.18,5.67
-6.07,-9.64,1.70,8.26,8.26,8.33
-6.48,-9.57,1.90,7.91,7.91,7.77
-7.25,-9.62,2.21,6.23,5.95,5.81
-7.83,-10.25,2.28,8.26,8.26,9.10
-7.83,-10.40,2.12,16.24,16.24,16.24
-8.23,-10.62,1.95,26.95,28.00,28.00
-8.79,-10.54,1.98,31.64,31.78,31.78
-9.19,-9.73,2.03,32.27,31.85,31.85
-9.39,-8.80,2.13,30.52,30.10,29.05
-9.61,-7.84,2.12,25.13,24.57,24.57
-9.83,-7.47,1.93,21.77,21.63,21.63
-10.12,-7.22,1.79,21.42,21.84,22.12
-10.28,-6.92,1.53,25.69,25.69,26.39
-10.40,-6.54,1.41,31.64,31.64,32.13
-10.46,-5.48,1.40,34.16,34.23,34.23
-10.14,-4.36,1.25,30.94,30.94,30.94
-10.17,-4.24,0.96,22.40,22.40,22.40
-10.51,-3.66,0.49,13.72,13.58,13.58
-10.32,-3.51,0.42,15.12,15.12,15.12
-10.22,-2.84,0.35,16.17,16.24,16.24
-9.73,-1.14,0.40,17.22,17.22,17.15
-8.78,-0.22,0.53,15.47,15.47,15.47
-7.92,0.49,0.68,8.12,8.12,8.12
-7.46,0.67,0.75,3.99,3.99,3.99
-7.01,0.70,0.69,3.92,3.92,3.92
-6.52,0.95,0.78,6.86,6.86,6.86
-5.80,1.50,0.91,8.33,8.33,8.75
-5.22,1.90,1.01,10.99,11.48,11.48
-4.97,2.13,1.08,16.10,16.10,16.59
-4.83,2.77,1.21,19.67,19.67,20.09
-4.49,3.33,1.20,22.26,22.26,22.26
-4.43,3.89,1.16,21.42,21.28,21.28
-4.69,4.43,1.05,20.16,20.16,20.16
-4.70,5.06,1.04,19.88,19.88,19.88
-4.40,5.94,1.03,17.64,17.64,17.64
-4.11,6.57,0.96,12.67,11.27,11.27
-4.10,6.98,0.96,5.95,5.95,5.95
-4.53,7.00,1.00,0.77,0.77,0.77
-5.12,6.74,0.98,-2.03,-2.03,-2.03
-5.04,6.54,1.06,0.14,0.14,0.14
-4.85,6.72,1.13,2.52,2.52,2.52
-4.56,7.11,1.26,3.71,3.71,3.71
-4.71,7.39,1.35,2.59,2.59,2.59
-4.80,7.70,1.47,1.05,1.05,1.05
-4.88,7.62,1.52,-0.42,-0.42,-0.42
-5.13,7.53,1.56,-0.63,-0.42,-0.42
-5.59,7.53,1.58,0.35,0.35,0.35
-6.19,7.65,1.56,3.43,3.43,3.43
-6.47,7.74,1.57,5.46,5.88,5.88
-6.61,7.83,1.56,6.86,6.86,6.86
-6.95,7.78,1.45,8.89,8.89,8.89
-7.28,7.68,1.45,11.41,12.18,12.18
-7.36,7.89,1.45,13.79,13.79,13.79
-7.33,7.83,1.35,16.52,17.08,17.08
-7.20,7.81,1.28,21.00,21.00,21.70
-7.00,8.00,1.18,26.18,26.18,26.18
-6.79,8.13,1.07,31.57,31.57,32.41
-5.86,9.06,0.74,35.49,35.49,35.49
-5.14,9.07,0.52,33.25,33.25,33.25
-4.49,8.67,0.31,33.04,33.04,33.04
-3.83,8.37,-0.09,38.64,38.64,38.64
-3.15,8.65,-0.41,41.79,41.79,41.79
-2.46,9.07,-0.62,37.45,37.45,37.45
-1.85,9.29,-0.78,32.48,32.48,31.85
-1.38,9.23,-0.87,25.69,25.69,25.69
-0.80,9.18,-0.94,20.65,19.81,19.81
-0.21,9.17,-1.03,13.44,11.90,11.90
0.36,9.19,-1.12,7.28,7.28,5.74
0.75,8.92,-1.18,2.10,2.10,2.10
1.20,8.65,-1.33,0.07,0.00,0.00
1.55,8.36,-1.40,1.61,1.61,2.59
1.82,8.33,-1.43,5.60,5.60,5.60
1.99,8.65,-1.34,7.91,7.91,7.91
2.16,8.93,-1.31,9.52,9.87,9.87
2.17,9.36,-1.17,9.38,9.38,8.68
0.81,9.82,-0.85,-9.17,-10.15,-10.15
0.27,9.33,-0.79,-14.91,-14.91,-15.26
-0.16,8.48,-0.76,-13.58,-13.58,-12.88
-0.34,8.23,-0.74,-8.47,-8.47,-7.91
-0.52,8.15,-0.68,-5.67,-5.04,-4.90
-0.71,8.29,-0.59,-4.41,-4.55,-4.55
-0.86,8.23,-0.57,-5.60,-5.60,-5.60
-0.91,8.08,-0.38,-10.43,-10.43,-11.13
-0.91,7.87,-0.25,-16.24,-16.24,-16.94
-1.06,7.62,-0.22,-22.12,-22.12,-22.12
-1.39,7.28,-0.16,-23.45,-23.66,-23.66
-1.84,7.11,0.05,-24.57,-24.99,-24.99
-2.50,6.93,0.12,-26.53,-26.53,-26.53
-3.10,6.72,0.29,-27.09,-27.09,-27.09
-3.80,6.54,0.42,-27.44,-27.44,-27.44
-4.44,6.00,0.52,-28.42,-28.63,-28.63
-4.87,5.36,0.57,-31.92,-31.92,-32.20
-5.48,4.59,0.58,-32.62,-32.06,-31.64
-6.07,3.93,0.50,-28.56,-27.09,-26.25
-6.64,3.44,0.47,-23.24,-23.24,-21.84
-6.91,2.83,0.50,-19.67,-19.67,-18.27
-7.27,1.57,0.46,-15.47,-15.47,-13.23
-7.93,0.95,0.35,-8.61,-8.61,-7.63
-8.18,1.76,0.24,-1.89,-1.68,-1.68
-8.28,1.90,0.46,-5.60,-5.60,-5.60
-8.55,1.01,0.50,-14.63,-15.19,-15.19
-8.80,0.28,0.44,-16.45,-16.24,-16.24
-8.82,-0.29,0.45,-15.68,-15.26,-15.26
-9.15,-1.80,0.80,-14.14,-13.72,-12.95
-9.60,-3.24,0.89,-9.45,-8.33,-8.33
-9.61,-3.41,0.99,1.54,1.54,1.54
-9.18,-2.38,1.28,4.13,3.57,3.57
-8.93,-2.59,1.87,-5.60,-5.60,-7.49
-9.54,-4.72,1.86,-20.09,-20.09,-21.77
-9.84,-4.92,1.47,-29.89,-29.89,-30.59
-9.93,-5.14,1.46,-32.48,-32.83,-32.97
-9.76,-6.39,1.49,-33.88,-34.79,-35.21
-10.15,-8.87,1.52,-38.22,-38.22,-39.76
-10.19,-9.97,0.69,-38.78,-38.78,-38.78
-9.59,-9.45,0.46,-30.73,-30.73,-30.73
-8.87,-9.45,0.96,-27.09,-27.09,-27.09
-8.94,-10.76,0.73,-25.34,-24.99,-24.99
-9.24,-11.27,0.45,-21.49,-21.49,-21.49
-9.01,-11.02,0.62,-13.02,-13.02,-13.02
-8.60,-10.29,1.25,-4.20,-4.20,-4.20
-8.24,-9.38,1.70,-4.34,-4.34,-4.69
-8.28,-9.42,1.69,-10.36,-10.36,-10.36
-8.35,-9.17,1.42,-12.95,-12.95,-12.95
-8.11,-9.15,1.43,-11.90,-11.90,-11.90
-7.72,-9.35,1.52,-10.71,-10.36,-10.36
-7.41,-9.35,1.57,-8.61,-8.61,-8.61
-7.40,-9.50,1.36,-3.85,-2.31,-2.31
-7.24,-9.12,1.22,3.22,3.22,4.97
-6.76,-8.70,1.23,8.61,8.68,8.68
-6.38,-8.43,1.38,5.95,5.95,5.25
-6.21,-8.22,1.30,0.49,0.49,-0.21
-6.12,-8.11,1.21,-3.78,-3.78,-4.27
-6.08,-8.38,1.09,-6.72,-6.72,-6.72
-5.99,-8.60,1.06,-6.93,-6.79,-6.79
-5.90,-8.97,0.98,-5.39,-4.55,-4.55
-5.79,-9.18,0.83,-1.61,-0.56,-0.56
-5.65,-9.14,0.83,2.31,2.31,3.01
-5.54,-8.79,0.90,5.11,5.88,5.88
-5.38,-8.14,1.02,7.49,7.49,7.63
-5.25,-7.94,1.15,7.14,7.14,7.14
-5.21,-7.92,1.45,4.69,4.06,4.06
-5.24,-8.19,1.59,0.14,-0.14,-0.14
-5.16,-8.45,1.46,-1.89,-1.89,-2.03
-5.31,-8.80,1.30,-1.54,-1.54,-1.54
-5.79,-8.92,1.03,1.05,1.54,1.54
-6.07,-8.75,0.98,4.06,5.95,5.95
-6.27,-8.64,1.16,11.69,11.69,12.67
-6.57,-8.48,1.54,20.86,20.86,20.86
-6.66,-8.11,1.64,26.53,28.28,28.28
-6.55,-7.68,1.67,32.41,32.76,32.76
-6.52,-7.10,1.79,32.20,32.20,31.78
-6.61,-6.37,1.96,28.84,27.58,26.88
-6.68,-5.65,1.97,21.84,21.00,21.00
-6.45,-5.47,1.88,15.47,15.47,13.37
-6.17,-5.71,1.79,9.52,9.52,9.10
-6.10,-5.71,1.92,5.60,5.60,5.60
-5.96,-5.84,1.92,3.36,3.36,3.36
-5.63,-6.16,1.83,1.54,1.54,1.54
-5.34,-6.28,1.69,0.14,0.14,0.14
-4.91,-6.06,1.57,-1.68,-1.82,-1.82
-4.48,-6.46,1.55,-1.82,-1.54,-1.54
-3.87,-6.79,1.46,0.35,0.56,0.56
-3.39,-7.08,1.25,1.19,1.19,1.12
-2.98,-7.15,1.34,-2.31,-2.31,-2.31
-2.60,-7.87,1.23,-7.14,-7.14,-7.14
-2.41,-8.50,1.01,-11.41,-11.41,-11.41
-2.18,-8.99,0.99,-11.34,-11.27,-11.27
-2.05,-9.65,1.02,-11.06,-10.99,-11.13
-1.99,-10.28,1.30,-12.60,-12.88,-12.88
-1.92,-10.60,1.43,-14.07,-14.07,-14.07
-1.58,-10.64,1.78,-18.90,-18.90,-19.67
-1.22,-10.74,1.83,-24.71,-24.71,-24.71
-0.70,-11.07,1.74,-28.42,-28.35,-28.35
-0.33,-11.47,1.57,-26.32,-24.64,-24.64
-0.07,-11.50,1.44,-20.93,-20.93,-20.93
0.00,-11.14,1.27,-19.74,-19.81,-19.81
0.05,-10.79,1.12,-20.72,-21.21,-21.21
0.13,-10.56,0.88,-23.52,-23.52,-23.52
0.33,-10.76,0.83,-26.25,-26.32,-26.32
0.63,-11.24,0.83,-26.18,-25.83,-25.83
0.62,-11.53,0.69,-24.64,-24.15,-23.73
0.40,-11.07,0.78,-22.33,-22.19,-22.19
0.28,-10.47,0.78,-21.84,-21.98,-21.98
0.20,-10.14,0.76,-23.73,-24.01,-24.01
0.04,-9.95,0.85,-25.83,-26.95,-26.95
-0.13,-10.40,0.94,-27.79,-27.79,-27.79
-0.19,-10.97,1.02,-24.50,-23.87,-23.87
-0.42,-11.14,0.93,-19.67,-19.04,-19.04
-0.62,-10.63,1.04,-12.74,-12.74,-12.04
-0.83,-10.18,1.12,-9.17,-8.19,-7.49
-0.30,-10.35,0.82,2.17,2.80,2.80
-0.18,-9.96,0.89,5.53,5.53,5.53
-0.20,-9.67,0.84,7.98,7.98,7.98
0.00,-9.62,0.79,8.96,8.96,8.96
0.37,-9.89,0.56,9.52,9.52,9.52
0.76,-10.05,0.39,10.08,10.08,10.08
0.93,-10.47,0.11,13.30,13.30,13.30
1.19,-10.92,-0.14,17.78,17.78,17.78
1.05,-10.74,-0.03,19.18,19.32,19.32
0.61,-10.11,0.41,18.69,18.55,18.55
0.18,-9.99,0.77,20.16,20.16,21.42
0.18,-10.92,0.50,27.65,27.58,27.58
-0.43,-10.31,0.89,26.53,26.39,26.39
-0.96,-9.96,1.01,26.53,26.67,26.67
-1.24,-10.52,0.78,25.97,25.97,25.90
-1.37,-11.69,0.37,26.11,26.67,27.09
-1.23,-12.04,0.21,29.96,29.96,31.92
-1.52,-11.57,0.40,33.95,33.95,34.16
-1.99,-10.71,0.99,31.85,31.85,31.36
-2.46,-10.07,1.49,28.77,28.77,28.56
-2.85,-9.47,1.81,26.67,26.67,26.39
-3.46,-9.29,2.03,24.22,23.80,23.80
-4.04,-9.10,2.11,18.48,18.48,17.64
-4.50,-8.88,2.12,10.01,10.01,9.24
-4.77,-8.88,2.11,5.81,5.81,5.81
-5.06,-8.97,1.96,5.04,5.04,5.04
-5.57,-8.88,1.75,6.51,7.14,7.14
-6.42,-8.86,1.54,10.01,10.43,10.43
-6.82,-8.87,1.53,14.70,14.70,15.33
-6.93,-8.49,1.56,18.06,19.32,19.74
-6.92,-7.78,1.45,21.49,21.63,21.70
-7.30,-7.29,1.30,20.37,20.37,18.48
-7.71,-6.73,1.29,12.81,12.81,11.83
-8.11,-6.63,1.35,4.83,4.83,4.83
-8.50,-7.16,1.38,0.35,0.35,0.07
-8.72,-7.93,1.40,1.75,1.75,1.75
-8.76,-8.00,1.22,13.51,13.51,13.51
-8.85,-7.33,1.17,20.16,21.77,21.77
-9.07,-6.28,1.15,24.64,24.64,24.64
-9.16,-5.25,1.07,23.10,22.40,22.40
-9.19,-4.30,1.01,17.85,14.14,14.14
-9.34,-4.06,1.05,7.77,4.55,4.55
-9.79,-4.30,0.84,1.05,0.56,0.07
-10.28,-4.35,0.59,0.07,0.35,0.77
-10.27,-3.73,0.44,3.50,3.50,3.92
-10.34,-3.08,0.46,4.90,4.90,4.90
-10.42,-2.46,0.52,3.71,3.36,3.36
-10.35,-1.91,0.42,1.68,1.68,1.68
-9.98,-1.11,0.38,-1.26,-1.26,-1.75
-9.81,-0.72,0.24,-4.48,-4.48,-4.69
-9.94,-0.51,0.10,-4.90,-4.90,-4.69
-9.83,-0.34,0.00,-1.68,-1.68,-1.68
-9.50,0.03,-0.06,3.92,3.92,3.92
-9.04,0.76,-0.04,7.14,7.14,7.14
-8.60,1.32,-0.03,8.75,8.75,8.75
-8.30,1.57,-0.05,9.66,9.66,9.66
-7.97,2.37,-0.02,9.24,9.24,9.24
-7.28,3.26,0.02,6.79,5.46,5.46
-6.75,3.90,0.14,-2.59,-2.59,-2.59
-6.47,4.08,0.15,-8.19,-9.80,-9.80
-6.31,3.62,0.18,-10.57,-10.57,-9.66
-6.24,3.15,0.12,-5.39,-5.39,-3.50
-6.09,3.28,0.19,2.45,3.22,3.22
-5.92,3.82,0.20,8.61,8.61,8.89
-5.39,4.75,0.24,8.33,8.33,8.33
-5.71,4.90,0.11,-0.21,0.00,0.00
-6.35,4.63,0.06,2.87,2.87,2.87
-6.81,4.85,0.05,7.28,7.56,7.56
-7.12,5.27,-0.02,8.05,7.77,7.77
-7.06,5.71,-0.08,5.88,5.25,3.99
-7.30,5.81,-0.25,1.26,0.63,0.63
-7.78,5.60,-0.46,-1.89,-1.89,-1.89
-8.15,5.56,-0.53,-1.82,-1.68,-1.68
-7.88,5.64,-0.49,-3.43,-3.43,-3.43
-8.07,5.22,-0.55,-1.96,-0.84,-0.84
-8.24,5.01,-0.55,2.45,2.45,3.57
-8.16,5.18,-0.55,7.35,7.63,7.63
-7.96,5.62,-0.48,5.81,5.81,5.39
-7.79,5.71,-0.41,1.96,0.63,0.07
-7.66,5.35,-0.40,-2.38,-2.59,-2.59
-7.52,4.76,-0.32,-1.89,-1.47,-1.47
-7.62,4.35,-0.33,3.71,4.62,4.62
-7.64,4.41,-0.29,8.82,9.52,9.52
-7.41,5.08,-0.15,10.92,10.92,10.57
-7.23,5.17,-0.08,7.00,7.00,6.58
-7.03,4.62,-0.16,4.69,4.69,4.83
-6.90,4.01,-0.26,7.56,7.56,7.56
-6.83,3.56,-0.22,12.25,12.25,12.25
-6.86,3.61,-0.01,14.42,14.42,14.42
-7.10,3.47,0.20,13.65,13.65,13.65
-7.58,2.97,0.19,12.60,12.53,12.53
-7.86,2.67,0.08,13.72,13.72,13.72
-8.04,2.67,0.10,15.12,15.40,15.40
-8.03,2.82,0.32,14.63,14.63,14.21
-8.18,1.29,0.54,10.85,10.85,10.85
-8.46,1.24,0.52,9.31,9.31,9.31
-8.65,0.40,0.44,13.37,13.37,13.37
-8.42,0.05,0.45,21.91,22.75,22.75
-8.17,-0.22,0.75,26.25,26.53,26.53
-8.34,-1.12,0.91,28.07,28.07,28.07
-8.41,-1.57,1.03,28.28,28.42,28.56
-8.01,-1.27,1.06,28.70,28.70,28.42
-7.52,-1.24,1.34,26.60,26.60,24.71
-8.04,-3.19,1.67,18.06,18.06,0.14
-8.60,-3.95,1.76,11.20,11.20,11.20
-8.41,-4.14,1.64,7.56,7.35,7.35
-7.45,-4.00,1.79,6.44,5.25,5.25
-7.13,-5.41,2.18,-1.19,-1.19,-1.19
-7.27,-5.88,2.41,-13.86,-13.86,-13.86
-7.11,-6.45,2.36,-25.13,-25.13,-25.13
-6.54,-8.05,2.20,-30.24,-30.31,-30.31
-5.92,-9.78,2.13,-30.94,-31.22,-31.22
-5.74,-10.02,2.31,-34.65,-35.77,-36.26
-5.33,-9.71,2.23,-38.43,-38.43,-38.43
-4.72,-9.29,2.46,-40.60,-42.07,-42.07
-4.22,-10.60,1.24,-46.20,-46.20,-46.20
-4.45,-11.29,2.36,-54.11,-54.88,-54.88
-4.43,-11.35,2.43,-57.19,-57.40,-57.40
-3.84,-11.34,2.59,-56.35,-56.14,-56.14
-3.14,-11.19,2.88,-56.56,-56.77,-56.77
-2.65,-11.16,2.83,-59.36,-59.85,-59.85
-2.52,-11.72,2.58,-63.35,-63.35,-63.21
-2.40,-12.66,2.47,-60.13,-57.75,-56.42
-2.13,-12.85,2.38,-48.02,-44.31,-42.56
-1.72,-12.94,2.26,-29.89,-29.89,-29.89
-1.31,-12.46,1.82,-17.36,-16.31,-16.31
-1.01,-11.62,1.82,-11.55,-11.20,-11.20
-0.89,-11.45,1.90,-9.17,-9.17,-8.75
-1.10,-11.46,1.74,-6.37,-5.11,-4.55
-1.43,-10.92,1.73,-0.84,-0.84,-0.49
-1.58,-10.41,1.69,1.19,1.19,1.19
-1.67,-10.24,1.70,0.35,0.35,0.35
-1.71,-10.60,1.72,0.07,0.07,0.21
-1.87,-10.62,1.73,2.45,2.45,2.45
-2.09,-10.54,1.69,4.69,5.39,5.39
-2.28,-10.56,1.67,7.14,7.35,7.35
-2.42,-10.63,1.72,7.49,7.42,7.42
-2.76,-10.62,1.63,5.88,5.88,5.88
-2.80,-10.76,1.77,2.45,2.45,2.45
-2.91,-11.41,1.80,-0.14,-0.14,-0.14
-3.05,-11.50,2.12,-0.63,-0.63,-0.63
-3.19,-11.68,2.52,-1.12,-1.05,-1.05
-3.30,-12.05,2.65,-0.49,-0.28,-0.28
-3.40,-12.83,2.53,2.94,3.71,3.71
-3.54,-13.29,2.40,11.20,11.20,11.90
-3.97,-13.44,2.33,14.98,15.75,16.10
-4.66,-13.57,2.26,17.50,17.50,17.71
-5.14,-13.41,2.17,18.76,19.32,19.32
-5.50,-13.31,1.97,21.56,21.56,22.26
-5.94,-13.27,1.79,23.66,23.66,23.66
-6.46,-13.36,1.64,22.26,22.26,21.49
-7.10,-12.49,1.49,17.92,18.06,18.13
-8.00,-12.49,1.25,17.99,17.99,17.99
-8.73,-12.45,1.00,18.62,18.62,18.97
-9.04,-11.27,0.67,22.96,22.96,22.96
-9.48,-10.68,0.45,23.87,23.87,23.87
-9.44,-8.92,0.61,21.63,20.23,20.23
-9.33,-7.57,0.55,16.80,16.80,15.47
-9.40,-6.51,0.55,11.97,11.97,11.97
-9.50,-6.22,0.26,12.53,12.95,12.95
-9.47,-5.78,0.21,16.73,16.73,16.73
-8.54,-4.05,0.41,24.71,25.76,25.76
-7.72,-2.91,0.45,34.51,34.51,35.28
-6.74,-1.83,0.50,38.92,38.92,39.34
-5.79,-1.12,0.45,41.93,41.93,41.93
-4.62,1.21,0.47,44.94,44.94,45.50
-3.42,1.03,0.63,47.39,47.39,47.39
-2.19,2.12,0.76,45.29,45.29,45.29
-1.42,2.51,0.67,40.81,40.39,40.39
-0.86,2.73,0.67,40.39,40.39,40.88
-0.33,2.91,0.42,45.43,45.43,45.43
0.11,3.45,0.32,48.86,48.86,48.86
0.66,4.33,0.12,51.59,51.59,51.59
0.98,5.44,-0.02,53.41,53.41,53.41
1.03,7.01,-0.14,48.09,48.09,48.09
0.99,8.52,-0.19,31.36,31.36,31.36
0.86,9.86,-0.22,19.60,15.26,15.26
0.75,10.59,-0.17,3.08,3.08,3.08
0.47,10.39,-0.26,-12.95,-12.95,-12.95
0.47,9.88,-0.43,-18.90,-19.53,-19.53
0.76,9.67,-0.46,-22.68,-22.68,-22.82
0.86,9.42,-0.19,-21.98,-21.98,-21.98
0.29,9.02,0.01,-19.81,-19.81,-19.81
-0.67,8.71,0.25,-15.61,-15.61,-15.61
-0.57,8.52,0.33,-9.94,-9.45,-9.45
-0.40,8.77,0.38,-6.86,-6.58,-6.58
-0.64,9.16,0.55,-5.25,-5.25,-5.18
-1.45,9.37,0.60,-6.02,-6.02,-6.02
-1.92,9.43,0.56,-5.39,-5.39,-5.39
-2.12,9.19,0.54,-3.57,-2.94,-2.94
-2.23,9.21,0.49,-1.54,-1.54,-1.26
-2.68,9.26,0.44,-0.98,-0.98,-0.98
-3.92,9.14,0.52,1.61,1.61,1.61
-4.10,9.09,0.50,3.43,3.57,3.57
-4.26,9.08,0.43,3.71,3.71,3.71
-4.40,9.05,0.41,3.50,3.50,3.50
-4.55,9.04,0.31,4.20,4.76,4.76
-4.65,8.97,0.20,6.79,7.63,7.63
-4.66,9.12,0.21,10.08,10.08,10.22
-4.55,9.33,0.28,9.31,9.31,9.31
-4.42,9.33,0.26,6.51,6.51,6.51
-4.32,9.21,0.28,5.18,5.32,5.32
-4.13,9.15,0.27,6.02,6.16,6.16
-3.95,9.05,0.23,8.12,8.40,8.40
-3.79,8.97,0.12,10.64,10.64,11.06
-3.61,9.13,0.09,13.72,13.72,13.93
-3.43,9.28,-0.00,14.98,14.98,14.98
-3.31,9.37,-0.09,15.61,15.75,15.75
-3.23,9.32,-0.17,15.68,15.82,15.82
-3.21,9.24,-0.26,16.45,16.45,16.45
-3.11,9.33,-0.36,16.80,16.80,16.80
-2.92,9.49,-0.44,14.98,14.14,14.14
-2.76,9.61,-0.54,11.69,11.69,10.85
-2.64,9.55,-0.63,9.73,9.94,9.94
-2.52,9.47,-0.58,10.43,10.43,10.36
-2.42,9.54,-0.51,9.59,9.03,8.75
-2.40,9.64,-0.54,6.86,6.86,6.86
-2.21,9.80,-0.61,1.12,1.12,1.12
-1.95,9.85,-0.69,-5.11,-5.11,-5.11
-1.83,9.71,-0.69,-10.36,-10.36,-10.36
-1.86,9.30,-0.67,-12.25,-12.25,-12.25
-2.06,8.75,-0.64,-10.29,-10.29,-9.80
-2.00,8.66,-0.53,-6.09,-6.09,-6.09
-1.98,8.87,-0.36,-5.67,-5.67,-5.67
-2.09,9.06,-0.22,-6.37,-6.37,-6.37
-2.26,9.24,-0.11,-6.79,-6.79,-6.79
-2.31,9.26,-0.03,-7.42,-7.42,-7.42
-2.33,9.23,0.02,-8.89,-8.89,-8.89
-2.41,9.22,0.17,-10.71,-10.92,-10.92
-2.56,9.07,0.26,-10.71,-9.87,-9.87
-2.72,8.67,0.23,-4.69,-4.69,-4.69
-2.75,8.57,0.17,2.59,2.59,3.36
-2.64,8.76,0.16,6.93,6.93,6.93
-2.45,9.09,0.13,7.84,7.84,7.84
-2.31,9.18,-1.22,7.14,7.14,7.14
-2.23,9.06,-0.12,5.81,5.81,5.81
-2.22,8.78,-0.27,5.60,5.74,5.74
-2.07,8.92,-0.31,4.27,4.27,4.27
-2.06,8.95,-0.45,0.91,0.91,0.56
-2.04,8.85,-0.51,-3.29,-3.29,-3.29
-2.02,8.69,-0.39,-8.75,-8.75,-8.75
-2.05,8.35,-0.24,-17.85,-17.85,-17.85
-2.21,7.92,-0.23,-19.74,-19.74,-19.74
-2.51,7.76,-0.10,-18.62,-18.62,-18.62
-2.83,7.53,0.37,-17.15,-17.15,-17.15
-3.02,7.35,0.89,-18.41,-18.41,-18.41
-3.14,7.14,1.45,-24.29,-24.29,-25.27
-3.22,6.59,1.78,-31.29,-31.29,-31.29
-3.22,5.81,1.71,-28.28,-28.28,-28.28
-3.31,5.39,1.71,-18.62,-18.62,-18.62
-3.69,4.91,1.79,-14.91,-13.86,-13.86
-4.14,4.54,1.86,-10.78,-10.78,-9.38
-4.59,4.14,1.62,-2.94,-0.28,-0.28
-5.05,4.09,1.47,8.19,10.57,10.57
-5.66,4.18,1.45,13.79,13.86,13.44
-6.52,3.60,1.69,9.45,8.96,8.96
-7.17,2.50,1.60,7.42,7.70,7.70
-8.05,1.31,1.49,12.11,12.11,12.11
-8.69,0.73,1.59,20.37,20.37,20.37
-8.97,0.50,1.42,23.73,24.22,24.22
-9.11,-0.49,1.46,24.01,24.01,24.01
-9.67,-2.10,1.79,23.03,23.03,23.03
-9.86,-3.14,1.91,29.19,29.19,29.19
-9.18,-2.45,1.92,35.56,35.56,35.56
-8.84,-2.70,2.30,36.19,36.19,36.19
-9.69,-4.13,2.41,32.13,30.10,30.10
-9.79,-4.27,2.37,24.01,24.01,22.26
-8.77,-4.53,2.43,17.57,17.01,17.01
-8.86,-7.07,3.38,11.34,10.15,10.15
-9.72,-9.07,3.94,-0.84,-0.84,-2.80
-9.46,-7.47,3.49,-16.03,-16.03,-17.85
-8.61,-6.19,3.26,-36.61,-36.61,-39.06
-7.76,-7.35,3.98,-52.15,-52.15,-52.15
-7.65,-10.08,4.48,-60.69,-61.32,-61.32
-7.88,-12.25,4.21,-54.60,-54.60,-54.60
-7.42,-11.78,4.22,-37.10,-37.10,-37.10
-7.23,-10.02,4.74,-26.60,-26.60,-26.60
-7.19,-8.41,5.18,-34.23,-38.36,-38.36
-6.97,-7.93,5.20,-54.32,-54.32,-54.32
-6.57,-8.39,4.52,-68.74,-68.74,-68.74
-6.14,-9.34,3.82,-70.98,-70.63,-70.63
-5.65,-10.16,3.02,-66.92,-65.45,-65.45
-5.11,-10.84,2.79,-59.57,-59.57,-57.33
-4.74,-11.26,2.50,-49.63,-49.63,-49.63
-4.50,-10.89,1.98,-36.61,-36.61,-36.61
-4.26,-10.54,1.71,-23.73,-23.73,-23.73
-3.93,-10.60,1.86,-14.49,-14.49,-14.49
-3.40,-11.14,2.35,-8.96,-8.96,-8.96
-3.03,-10.83,2.56,-3.57,-3.57,-3.57
-2.90,-10.29,2.54,-0.56,-0.28,-0.28
-2.79,-9.73,2.46,-0.42,-0.42,-0.42
-2.58,-9.69,2.47,-5.39,-5.39,-5.95
-2.39,-9.94,2.34,-8.61,-8.75,-8.75
-2.31,-9.68,2.13,-6.44,-6.44,-5.88
-2.24,-9.46,2.17,-2.45,-2.45,-1.96
-2.34,-9.55,2.29,-0.77,-0.77,-0.77
-2.21,-9.58,2.11,-1.82,-1.82,-1.82
-2.12,-9.56,1.99,-2.10,-2.10,-2.10
-2.24,-9.39,1.86,-1.26,-0.98,-0.98
-1.94,-9.25,2.07,0.00,0.00,0.14
-1.57,-9.53,2.08,0.84,0.84,0.84
-1.25,-10.11,1.97,2.59,2.59,2.59
-1.05,-9.87,1.87,6.02,6.02,6.02
-0.89,-9.22,2.04,5.95,5.95,5.95
-0.65,-8.83,2.15,1.96,0.14,0.14
-0.60,-8.86,2.08,-5.53,-5.53,-5.53
-0.79,-9.64,1.76,-10.85,-10.85,-10.85
-1.32,-9.96,1.57,-11.06,-11.06,-11.06
-1.80,-9.85,1.70,-11.55,-11.90,-11.90
-1.89,-10.13,1.98,-14.56,-14.77,-14.77
-1.96,-10.36,1.97,-15.33,-15.33,-15.33
-2.48,-10.80,1.80,-15.05,-14.91,-14.91
-3.12,-10.91,1.83,-12.60,-12.60,-12.04
-3.29,-10.59,2.05,-5.60,-5.60,-5.60
-3.34,-10.49,2.38,-1.12,-1.12,-1.12
-3.82,-11.27,2.51,0.42,0.42,0.42
-4.19,-11.90,2.67,2.87,3.43,3.43
-4.47,-12.09,2.59,6.58,7.35,8.75
-4.90,-11.47,2.69,12.04,12.53,13.58
-5.50,-10.74,2.96,15.05,15.05,15.26
-7.33,-10.08,3.13,15.12,14.91,14.91
-6.54,-9.88,3.09,14.35,14.35,14.00
-7.03,-9.38,2.92,13.09,13.09,12.39
-7.77,-8.85,2.63,10.64,10.64,9.66
-8.59,-8.38,2.24,9.17,9.17,9.17
-8.93,-8.23,1.77,11.97,12.32,12.32
-9.20,-7.76,1.59,15.40,15.40,15.40
-9.39,-7.09,1.51,16.66,16.66,16.66
-9.56,-6.49,1.29,15.61,15.61,15.40
-9.61,-6.16,1.18,12.04,12.04,12.04
-9.69,-5.80,0.97,9.52,8.75,8.75
-9.93,-5.41,0.70,6.93,6.44,6.44
-10.09,-4.99,0.51,6.02,6.02,6.02
-10.07,-4.87,0.36,7.28,7.28,7.91
-9.75,-4.29,0.42,9.17,9.38,9.38
-9.52,-3.67,0.48,9.24,9.24,9.24
-9.31,-2.83,0.49,8.89,8.89,9.03
-9.41,-2.80,0.62,10.08,10.57,10.57
-9.87,-3.00,0.49,18.62,18.62,19.81
-9.97,-1.90,0.55,25.27,26.88,27.65
-9.53,-0.28,0.77,29.68,29.82,29.47
-9.14,0.97,0.86,27.09,25.55,24.57
-8.55,2.16,0.82,19.74,17.78,16.66
-8.25,2.37,0.81,12.04,10.57,9.94
-8.15,2.34,0.68,8.68,8.68,9.45
-8.33,1.88,0.43,11.62,11.62,12.39
-8.18,2.18,0.42,18.27,19.39,19.39
-6.14,3.21,0.37,26.18,26.18,27.02
-6.51,4.22,0.39,28.42,28.42,28.35
-5.58,4.75,0.17,26.67,25.97,25.97
-5.06,5.11,-0.08,23.59,23.38,23.38
-4.86,5.44,-0.24,21.70,21.70,21.63
-4.29,5.85,-0.45,22.40,22.40,22.61
-3.69,6.68,-0.52,22.33,22.33,22.05
-3.01,6.97,-0.57,20.65,20.65,20.44
-2.36,7.13,-0.72,19.67,19.67,19.60
-1.95,7.03,-1.05,19.46,19.46,19.74
-1.50,7.23,-1.30,22.05,22.05,22.68
-1.25,7.53,-1.43,27.37,27.37,27.37
-0.82,8.09,-1.45,28.49,28.49,28.49
-0.53,8.71,-1.50,23.94,23.94,23.94
-0.28,8.98,-1.69,16.94,16.94,16.94
-0.22,8.87,-1.90,12.11,11.83,11.83
-0.27,8.99,-1.90,8.75,8.26,8.26
-0.11,9.05,-2.02,5.95,5.46,4.76
0.22,9.22,-2.11,2.45,1.96,1.96
0.38,9.06,-2.10,-2.66,-3.01,-3.01
-0.19,8.57,-2.01,-5.04,-4.90,-4.48
-0.58,8.53,-1.95,-1.54,-0.98,-0.98
-0.94,8.75,-1.89,0.70,0.84,0.84
-1.07,8.90,-1.92,0.21,0.21,0.21
-1.50,8.93,-2.04,1.19,1.19,1.19
-1.89,9.23,-2.00,2.80,2.80,2.80
-2.26,9.71,-1.88,-0.35,-0.35,-0.35
-2.75,9.79,-1.80,-5.53,-5.53,-5.53
-3.01,9.53,-1.72,-8.54,-8.54,-8.54
-3.37,9.18,-1.74,-7.98,-7.98,-7.98
-3.47,9.11,-1.68,-5.32,-5.32,-5.32
-3.38,9.38,-1.67,-6.02,-5.95,-5.95
-3.31,9.26,-1.68,-4.97,-4.97,-4.76
-3.33,9.12,-1.62,-3.85,-3.85,-3.64
-3.35,9.07,-1.62,-2.17,-1.82,-1.82
-3.31,9.14,-1.62,-0.56,-0.56,-0.42
-3.15,9.22,-1.64,-0.42,-0.49,-0.49
-3.05,9.36,-1.64,-0.49,-0.63,-0.63
-3.36,9.30,-1.46,-10.08,-10.08,-10.08
-3.55,8.88,-1.50,-9.66,-9.45,-9.45
-3.44,8.90,-1.52,-6.23,-6.23,-6.23
-3.21,9.20,-1.32,-6.79,-6.79,-6.79
-2.78,9.10,-1.30,-10.78,-10.78,-10.78
-1.98,8.92,-1.34,-12.46,-12.46,-12.46
-1.19,8.59,-1.40,-12.81,-12.81,-12.81
-0.66,8.01,-1.55,-13.72,-13.72,-14.07
-0.27,7.59,-1.67,-15.33,-15.61,-15.61
-0.15,7.57,-1.55,-17.71,-17.71,-18.97
0.07,7.67,-1.37,-21.91,-21.91,-22.68
0.25,8.03,-0.98,-32.27,-32.27,-32.27
0.25,8.12,-0.77,-39.76,-39.76,-42.70
-0.04,7.82,-0.75,-47.53,-47.53,-47.53
-0.49,7.57,-0.45,-53.76,-53.76,-53.76
-0.76,7.35,-0.18,-59.64,-59.64,-59.64
-1.63,6.61,0.28,-89.32,-72.17,-72.17
-2.33,5.60,0.51,-76.37,-76.58,-76.58
-2.92,4.53,0.86,-75.88,-75.88,-75.53
-3.44,3.46,1.32,-70.84,-70.84,-70.21
-3.96,2.53,1.77,-66.50,-66.50,-66.50
-4.44,1.90,2.11,-63.98,-63.98,-63.98
-5.17,1.04,2.46,-64.96,-65.52,-65.52
-5.80,0.11,2.55,-67.76,-67.76,-68.53
-6.57,-0.89,2.54,-71.05,-71.05,-71.05
-7.51,-1.61,2.72,-74.20,-74.20,-74.20
-8.43,-3.57,2.80,-75.95,-75.95,-75.95
-9.38,-5.07,2.55,-74.34,-74.34,-74.34
-10.11,-6.34,2.46,-70.56,-70.56,-70.56
-10.39,-6.70,2.11,-60.69,-59.36,-59.36
-11.04,-8.13,1.22,-45.15,-45.15,-45.15
-8.31,-9.22,1.41,-22.05,-22.05,-22.05
-7.12,-9.04,1.51,-9.38,-9.38,-9.38
-6.00,-10.37,1.79,-3.85,-1.96,-1.96
-5.36,-12.10,1.79,2.87,4.34,4.34
-4.71,-12.62,1.74,8.40,8.40,8.40
-4.20,-12.25,1.84,7.63,7.63,7.63
-3.55,-12.29,2.44,2.10,2.10,-0.07
-2.94,-12.64,2.91,-5.04,-5.04,-5.04
-2.35,-12.62,3.30,-5.60,-5.60,-5.60
-1.77,-12.46,3.59,-1.47,-1.47,-1.47
-1.39,-11.83,3.90,5.46,5.46,5.46
-1.21,-11.30,3.83,9.24,9.24,9.24
-1.05,-11.25,3.53,12.18,12.18,12.18
-0.94,-11.52,3.19,15.33,15.33,15.33
-1.19,-11.19,2.89,16.59,16.59,16.59
-1.55,-10.79,2.41,17.50,17.50,17.50
-1.95,-10.48,1.94,17.99,17.99,17.99
-2.08,-10.38,1.59,15.96,15.61,15.61
-2.04,-10.26,1.40,13.65,12.39,12.39
-2.10,-9.99,1.17,10.36,10.36,10.36
-1.98,-9.71,1.05,10.71,10.85,10.85
-1.83,-9.49,1.08,11.27,11.27,11.20
-1.65,-9.32,1.21,8.33,8.33,8.33
-1.39,-9.56,1.28,3.92,3.92,3.92
-1.20,-9.74,1.27,-0.49,-1.05,-1.05
-1.14,-9.53,1.43,-3.36,-3.36,-4.06
-1.09,-9.31,1.71,-6.79,-6.79,-6.79
-0.98,-9.26,1.86,-10.57,-11.20,-11.20
-0.80,-9.54,1.90,-13.23,-14.28,-14.28
-0.64,-10.19,1.93,-15.82,-15.82,-15.82
-0.76,-10.59,1.97,-15.75,-15.75,-15.75
-1.03,-10.61,2.00,-15.26,-15.19,-15.19
-1.39,-10.78,2.01,-14.84,-14.42,-14.42
-1.71,-10.73,2.01,-14.07,-13.93,-13.86
-2.21,-10.72,2.12,-13.44,-13.44,-13.44
-2.50,-11.39,2.40,-12.60,-12.32,-12.32
-2.74,-12.16,2.58,-9.66,-9.66,-9.10
-3.05,-12.17,2.69,-3.85,-3.85,-3.85
-3.57,-11.83,2.86,-1.61,-1.61,-1.61
-4.18,-11.68,3.02,-2.73,-2.73,-2.73
-4.78,-11.63,2.95,-4.83,-4.83,-4.83
-5.40,-11.70,2.81,-5.74,-5.74,-5.60
-6.15,-12.09,2.62,-3.99,-3.99,-3.99
-6.74,-12.57,2.62,1.89,2.87,2.87
-7.44,-12.92,2.55,7.77,10.99,10.99
-8.04,-12.61,2.40,18.97,18.97,18.97
-8.58,-11.99,2.30,25.62,25.62,25.62
-9.02,-11.05,2.29,25.48,25.48,25.48
-9.30,-10.02,2.15,23.17,22.12,22.12
-9.53,-9.15,2.06,17.78,17.78,17.78
-9.59,-8.54,1.83,13.44,12.88,11.90
-10.21,-9.00,1.28,9.38,9.38,9.17
-10.80,-9.15,1.00,10.57,10.57,10.57
-10.61,-8.39,0.68,18.62,18.62,18.62
-10.17,-6.74,0.89,26.74,26.74,26.74
-10.20,-5.36,0.89,28.00,28.00,27.93
-10.24,-4.27,0.80,23.80,23.80,23.80
-9.72,-2.72,0.85,21.49,21.35,21.35
-8.92,-1.70,0.94,21.14,21.14,21.14
-8.42,-1.19,0.97,20.30,20.30,19.53
-8.43,-0.94,0.91,16.24,16.24,15.68
-6.73,0.03,0.83,16.87,17.43,17.43
-2.44,2.14,0.84,25.90,25.90,25.76
-1.67,2.71,0.91,24.57,24.57,24.50
-1.06,3.22,0.80,24.22,24.22,24.29
-0.66,3.66,0.58,23.87,23.87,23.73
-0.26,4.15,0.58,23.24,22.89,22.68
0.06,4.72,0.57,22.40,22.26,22.26
0.18,5.21,0.41,22.96,22.96,23.10
0.29,5.83,0.20,23.59,23.59,23.59
0.52,6.71,0.15,22.54,21.77,21.77
0.56,7.80,0.11,17.36,15.47,15.47
0.40,9.41,0.23,-6.93,-6.93,-8.40
0.25,9.38,0.10,-16.24,-16.24,-17.08
-0.02,9.07,0.02,-19.60,-19.60,-19.81
-0.18,8.82,0.11,-18.97,-18.97,-18.97
-0.19,8.76,0.20,-18.20,-18.13,-18.13
-0.29,8.70,0.23,-16.59,-16.59,-16.38
-0.87,8.49,0.30,-14.21,-14.21,-13.86
-2.38,8.32,0.69,-5.67,-5.67,-5.67
-2.84,8.28,0.83,-6.02,-6.02,-6.02
-3.41,8.24,1.02,-7.42,-7.49,-7.49
-3.90,8.22,1.15,-9.17,-9.17,-9.59
-4.22,8.03,1.12,-10.92,-11.41,-11.55
-4.70,7.63,1.07,-11.62,-11.55,-11.13
-5.32,7.24,0.94,-8.05,-8.05,-8.05
-5.93,7.11,0.94,-1.33,-0.63,-0.63
-6.59,6.94,0.95,2.87,4.34,4.34
-7.47,6.93,1.00,6.86,6.86,6.86
-8.27,6.84,0.74,10.50,11.06,11.06
-9.29,6.77,0.56,15.19,15.19,15.19
-9.87,6.92,0.25,21.42,22.54,22.54
-10.15,7.32,0.01,31.01,31.01,31.78
-10.16,7.87,-0.15,35.28,35.28,35.49
-9.99,8.69,-0.21,33.53,33.53,32.90
-9.82,9.05,-0.30,29.19,27.79,27.23
-9.50,8.71,-0.44,25.27,25.27,24.99
-9.11,8.35,-0.47,24.85,24.85,24.85
-8.61,8.20,-0.54,24.64,24.64,24.78
-7.99,8.05,-0.71,26.11,26.11,26.46
-7.14,7.92,-0.82,29.05,29.05,29.33
-6.28,7.98,-0.87,30.03,30.10,29.96
-5.62,7.98,-0.94,29.54,29.54,29.19
-4.90,8.04,-1.07,28.42,28.42,28.42
-4.14,8.19,-1.12,26.46,26.46,26.46
-3.71,8.34,-1.32,21.98,21.49,21.49
-3.56,8.43,-1.40,18.97,18.62,18.62
-3.46,8.52,-1.51,14.70,14.21,14.21
-3.28,8.53,-1.63,11.13,10.78,10.78
-2.89,8.58,-1.71,7.70,7.28,7.28
-2.64,8.53,-1.70,5.11,4.69,4.69
-2.63,8.44,-1.71,2.59,2.31,2.31
-2.62,8.47,-1.75,0.77,0.77,0.56
-2.33,8.59,-1.69,-1.12,-1.12,-1.61
-2.17,8.82,-1.65,-4.13,-5.25,-6.02
-2.12,8.96,-1.56,-9.52,-9.52,-10.36
-2.32,8.94,-1.44,-17.29,-17.29,-17.92
-2.82,8.43,-1.15,-21.28,-21.28,-21.28
-3.00,8.31,-0.98,-21.42,-21.49,-21.42
-3.22,8.17,-0.84,-20.93,-20.44,-20.09
-3.30,8.15,-0.71,-18.48,-18.48,-17.85
-3.25,8.36,-0.58,-17.50,-17.50,-17.50
-3.19,8.36,-0.39,-19.11,-19.11,-19.11
-3.16,8.21,-0.27,-21.42,-21.42,-21.42
-3.21,7.42,-0.23,-18.97,-18.62,-18.62
-2.99,7.09,-0.20,-16.24,-15.96,-15.96
-2.90,7.10,0.05,-15.12,-15.12,-15.19
-2.97,7.36,0.13,-16.94,-17.85,-35.77
-3.20,7.38,0.12,-20.93,-20.93,-22.12
-4.16,6.53,0.41,-29.82,-29.82,-29.82
-4.53,6.17,0.47,-28.56,-28.56,-28.56
-4.98,5.61,0.43,-24.99,-24.99,-24.99
-5.43,5.52,0.42,-21.28,-21.28,-21.28
-6.16,4.99,0.79,-23.73,-23.73,-23.73
-6.76,4.17,0.80,-23.87,-22.89,-22.89
-7.23,3.46,0.66,-17.08,-17.08,-14.70
-7.55,3.37,0.60,-8.54,-8.54,-7.42
-7.97,3.52,0.91,-8.40,-8.40,-8.40
-8.52,2.99,1.16,-13.37,-13.37,-13.37
-9.09,2.58,1.19,-14.21,-14.21,-14.21
-9.75,2.04,1.24,-13.51,-13.72,-13.72
-10.29,1.58,1.39,-16.45,-16.80,-16.80
-10.37,1.57,1.35,-18.27,-18.34,-18.34
-10.42,1.42,1.26,-17.22,-17.22,-17.22
-10.37,1.03,1.39,-16.80,-16.80,-16.80
-10.46,0.19,1.50,-16.94,-16.45,-16.45
-11.25,-1.14,1.44,-12.25,-12.25,-11.27
-11.69,-1.79,1.25,3.64,3.64,3.64
-11.77,-1.26,1.17,12.32,13.93,13.93
-11.34,0.00,1.28,13.37,13.37,13.37
-11.24,0.22,1.38,4.41,1.89,1.89
-11.52,-0.51,1.18,-3.71,-3.71,-4.76
-12.25,-1.77,0.92,-4.90,-4.90,-4.48
-12.45,-2.02,0.83,3.36,3.36,3.36
-12.17,-1.54,0.93,8.26,9.17,9.17
-11.69,-0.93,1.16,8.26,8.26,7.63
-11.21,-0.53,1.26,0.70,0.70,0.70
-10.80,-0.49,1.19,-2.87,-2.87,-2.87
-10.50,-1.06,1.08,-3.01,-3.01,-3.01
-10.22,-1.45,1.05,-1.05,-1.05,-1.05
-9.68,-1.39,1.08,-1.47,-1.61,-1.61
-9.16,-1.49,1.14,-3.64,-3.64,-3.99
-8.71,-1.65,1.23,-6.93,-6.93,-7.07
-8.32,-1.99,1.23,-7.91,-7.91,-7.91
-8.23,-2.57,1.19,-6.37,-6.09,-6.09
-8.13,-2.85,1.35,-4.13,-3.99,-3.99
-7.88,-2.67,1.45,-4.34,-5.25,-5.25
-7.85,-2.76,1.65,-8.19,-8.82,-8.82
-7.81,-2.92,1.72,-13.58,-13.86,-13.86
-7.59,-2.90,1.60,-14.28,-14.28,-14.14
-7.40,-3.01,1.54,-14.07,-14.07,-14.14
-7.32,-3.64,1.88,-17.08,-17.08,-17.64
-7.46,-4.30,2.06,-21.49,-21.49,-21.49
-7.37,-4.93,1.88,-25.06,-25.06,-25.06
-6.85,-5.73,1.68,-27.79,-28.00,-28.00
-6.80,-6.50,1.63,-29.68,-29.96,-29.96
-6.51,-6.45,1.50,-31.29,-31.29,-31.50
-6.07,-6.32,1.54,-33.74,-33.74,-34.23
-5.61,-6.87,1.53,-37.03,-37.03,-37.03
-5.32,-7.45,0.95,-42.70,-43.40,-43.40
-4.85,-8.02,0.62,-45.29,-45.50,-45.50
-3.89,-9.52,0.74,-42.56,-42.56,-42.56
-3.17,-10.97,0.71,-35.28,-35.28,-34.37
-2.92,-11.37,0.57,-29.40,-28.84,-28.84
-2.79,-11.69,0.64,-26.39,-26.39,-25.69
-2.47,-12.45,0.84,-22.68,-22.68,-21.21
-2.49,-12.88,0.74,-15.96,-15.96,-13.93
-3.03,-12.93,0.50,-8.47,-8.47,-6.51
-3.44,-13.02,0.64,-0.35,-0.35,-0.35
-3.43,-12.99,1.15,10.50,10.50,11.90
-3.27,-12.70,1.38,19.11,19.11,19.11
-3.54,-11.90,1.34,26.39,26.39,26.39
-3.82,-11.04,1.35,26.95,26.95,26.88
-3.68,-10.09,1.46,24.36,24.36,23.03
-3.25,-9.63,1.62,18.20,18.20,18.20
-2.69,-9.52,1.66,7.98,7.98,7.98
-2.18,-9.94,1.53,0.14,0.14,-1.54
-1.73,-10.42,1.24,-5.11,-5.11,-5.11
-1.51,-10.31,0.97,-7.28,-7.28,-7.28
-1.39,-10.04,0.89,-8.75,-8.75,-8.75
-1.07,-9.96,0.64,-11.97,-12.11,-12.11
-0.94,-10.13,0.62,-12.11,-11.48,-11.48
-1.02,-10.42,0.45,-8.33,-8.33,-8.33
-1.28,-10.34,0.37,-3.36,-1.26,-1.26
-1.59,-9.86,0.45,1.89,1.89,1.89
-1.80,-9.52,0.62,1.40,1.40,1.40
-2.01,-9.23,0.67,-0.42,-0.56,-0.56
-2.01,-9.10,0.67,-2.31,-2.31,-2.52
-2.00,-8.89,0.76,-3.78,-4.20,-4.48
-1.90,-9.03,0.96,-6.02,-6.02,-6.58
-1.70,-9.66,0.94,-6.93,-6.93,-6.72
-1.58,-9.95,0.76,-3.50,-3.50,-2.87
-1.61,-9.90,0.74,-0.35,0.56,1.12
-1.70,-9.57,0.76,3.36,3.64,3.64
-1.71,-9.47,0.82,4.13,4.13,4.06
-1.79,-9.63,0.84,3.50,3.50,3.64
-1.73,-9.72,0.84,3.29,3.29,3.22
-1.81,-9.76,0.97,2.94,2.94,2.94
-1.90,-9.76,1.01,2.80,2.87,2.87
-2.05,-9.77,1.00,3.08,3.36,3.36
-2.18,-9.51,0.91,3.71,3.92,3.92
-2.22,-9.21,1.01,4.20,4.13,3.99
-2.20,-9.15,1.25,0.70,0.42,0.42
-2.21,-9.38,1.24,-1.47,-1.68,-2.03
-2.20,-9.55,1.10,-2.38,-2.31,-2.17
-2.27,-9.66,0.99,-1.33,-0.98,-0.49
-2.36,-9.68,0.89,0.91,1.12,1.68
-2.36,-9.59,0.88,2.59,2.87,3.08
-2.44,-9.46,0.90,3.22,3.36,3.22
-2.46,-9.39,0.89,2.59,2.59,2.10
-2.46,-9.44,0.80,1.05,1.05,0.63
-2.45,-9.52,0.78,-0.42,-0.42,-0.49
-2.42,-9.52,0.80,-0.70,-0.70,-0.70
-2.37,-9.53,0.82,-0.56,-0.63,-0.49
-2.28,-9.58,0.87,-0.07,-0.07,-0.07
-2.24,-9.61,0.85,0.77,0.77,0.77
-2.34,-9.50,0.90,1.40,1.40,1.40