aX,aY,aZ,gX,gY,gZ
-9.01,2.90,3.49,-19.18,-19.18,-19.18
-9.07,2.85,3.06,-23.87,-23.87,-23.87
-8.92,3.01,2.85,-26.25,-26.25,-26.67
-8.86,2.99,2.99,-29.05,-29.05,-29.05
-8.85,2.90,3.08,-31.36,-31.36,-31.36
-8.63,2.82,3.11,-33.18,-33.25,-33.25
-7.36,2.90,3.61,-33.88,-33.88,-33.95
-8.61,2.80,3.89,-34.30,-34.30,-34.16
-8.48,2.60,3.80,-35.00,-35.35,-35.35
-8.48,2.25,3.91,-36.54,-36.54,-36.61
-8.57,1.73,4.02,-36.68,-37.03,-36.96
-7.50,1.66,3.66,-39.69,-39.69,-39.69
-6.87,1.94,3.36,-46.20,-46.83,-46.83
-6.54,1.90,3.71,-50.75,-50.75,-50.75
-6.28,1.75,3.68,-55.93,-55.93,-55.93
-5.42,1.73,3.37,-61.81,-61.81,-61.81
-3.98,1.58,3.71,-71.96,-71.96,-71.96
-3.03,1.71,4.23,-73.01,-73.01,-73.01
-3.10,1.90,4.27,-79.52,-80.92,-80.92
-1.58,2.12,4.90,-89.39,-90.51,-90.51
-0.23,1.62,6.50,-93.17,-93.17,-92.89
0.32,1.29,6.66,-89.81,-89.25,-89.25
-0.29,1.33,6.69,-85.68,-85.68,-85.82
0.52,1.04,7.87,-84.35,-84.35,-83.65
1.52,0.24,8.48,-78.05,-74.48,-72.52
1.31,-0.11,7.84,-61.04,-61.04,-54.18
0.88,0.20,7.57,-44.80,-44.80,-43.40
2.80,0.61,8.37,-35.63,-35.63,-34.51
3.84,0.00,8.00,-19.88,-19.88,-19.88
6.00,0.85,6.81,24.43,24.43,24.43
6.61,1.16,6.29,36.75,38.57,38.57
8.39,1.92,6.56,45.78,45.78,45.64
9.37,2.00,6.23,43.89,43.54,43.61
7.93,1.92,4.96,46.06,46.06,49.70
10.90,2.86,5.11,59.01,59.01,58.66
11.52,2.53,4.34,54.39,54.39,54.25
10.19,2.77,3.64,59.15,59.15,60.27
11.12,3.36,3.42,66.08,66.08,68.81
13.83,3.96,3.32,67.06,67.06,66.36
12.24,4.08,2.38,63.49,63.49,63.49
11.30,4.08,1.91,62.37,62.37,62.37
11.42,4.89,2.20,59.64,59.64,59.64
11.98,5.40,2.11,50.75,47.88,47.88
12.17,5.71,1.50,37.31,37.31,35.84
11.64,5.49,0.88,23.52,23.52,23.52
11.06,5.05,0.58,14.91,14.91,14.91
10.61,4.93,0.44,4.48,4.48,4.48
11.06,5.03,0.19,-1.19,-3.01,-3.01
11.29,5.10,0.00,-8.26,-8.26,-10.01
11.09,4.84,0.04,-15.12,-15.12,-15.12
11.15,4.35,-0.10,-22.54,-22.54,-22.54
11.78,4.11,-0.24,-25.76,-25.76,-26.04
11.66,3.64,0.01,-27.72,-27.72,-27.86
11.44,3.17,0.19,-28.00,-28.00,-28.00
11.56,2.82,0.14,-27.58,-27.58,-27.58
11.63,2.84,0.14,-27.30,-27.30,-27.30
11.72,2.56,-0.17,-26.95,-26.81,-26.81
11.60,2.39,-0.15,-24.85,-24.85,-24.85
11.17,2.20,-0.15,-22.68,-21.91,-21.91
10.83,2.12,-0.20,-19.25,-19.25,-18.90
10.95,2.23,-0.33,-16.24,-16.24,-16.03
10.83,2.19,-0.36,-14.70,-14.70,-14.42
10.52,2.24,-0.41,-13.72,-13.72,-13.72
10.26,2.28,-0.50,-12.81,-12.81,-12.81
10.04,2.27,-0.52,-12.25,-11.69,-11.69
9.82,2.27,-0.53,-10.36,-10.36,-10.36
9.58,2.41,-0.56,-8.47,-8.47,-8.12
9.52,2.52,-0.61,-6.09,-6.09,-6.09
9.49,2.51,-0.85,-4.55,-4.55,-4.55
9.11,2.47,-0.84,-3.01,-3.01,-3.01
8.90,2.38,-0.94,-0.28,-0.28,-0.28
9.08,2.31,-1.17,1.75,1.75,1.75
9.13,2.26,-1.25,3.29,3.29,3.29
9.03,2.18,-1.40,4.83,4.83,4.97
9.43,2.32,-1.66,11.34,11.34,11.34
9.55,2.37,-1.68,14.07,14.07,14.07
10.00,2.53,-1.55,17.92,17.92,17.92
10.10,2.40,-1.33,22.96,22.96,22.96
10.46,2.19,-2.06,34.37,34.37,35.70
10.65,2.10,-1.92,40.04,40.04,41.79
10.98,1.98,-1.95,47.67,47.67,47.67
11.61,2.23,-2.40,58.80,58.80,58.80
11.74,2.39,-2.56,67.76,67.76,67.76
11.94,2.46,-2.55,73.85,73.85,74.83
11.68,2.16,-2.59,82.11,82.11,83.16
10.79,2.04,-2.51,92.75,92.75,92.75
10.11,1.90,-2.40,98.98,98.98,98.98
9.20,1.54,-2.13,102.34,102.34,102.34
8.38,1.23,-1.77,103.67,103.67,103.67
8.31,1.01,-1.53,101.08,101.08,101.08
7.40,1.23,-1.08,98.14,97.79,97.79
6.81,1.06,-0.28,92.33,91.63,91.63
6.76,1.02,0.31,85.75,84.70,84.70
6.59,1.01,0.72,77.91,76.58,76.58
6.34,0.97,0.78,66.57,65.03,65.03
6.01,0.90,0.33,51.10,51.10,49.56
5.96,0.85,0.16,40.32,40.32,38.78
6.88,0.88,0.13,21.98,21.98,21.98
8.02,1.22,-0.14,-8.61,-8.61,-12.04
8.63,1.08,-0.85,-22.05,-23.17,-23.17
9.17,1.33,-1.18,-32.13,-32.13,-32.90
9.62,1.73,-1.21,-36.47,-37.73,-38.50
9.70,1.81,-1.73,-42.14,-42.84,-42.84
10.13,1.75,-2.13,-48.58,-48.58,-49.21
10.21,2.08,-2.12,-53.27,-53.27,-53.55
9.85,2.30,-2.13,-55.58,-55.58,-55.86
9.92,2.57,-2.33,-57.75,-57.75,-57.75
10.30,2.76,-2.34,-59.15,-59.15,-59.15
10.08,2.96,-2.22,-61.11,-61.11,-61.11
9.71,3.08,-2.32,-63.63,-63.63,-63.63
9.73,3.12,-2.27,-65.24,-65.52,-65.52
9.27,2.88,-1.78,-65.80,-65.80,-65.80
9.28,2.69,-1.70,-64.26,-64.26,-63.91
9.68,2.75,-1.57,-58.66,-58.66,-58.66
9.65,3.03,-1.23,-52.43,-52.43,-52.43
9.96,5.45,-0.46,-47.74,-47.74,-48.23
10.68,7.39,0.65,-63.63,-63.63,-63.63
10.71,6.82,0.02,-76.58,-80.85,-80.85
10.49,6.07,-0.27,-93.24,-97.16,-97.16
10.14,4.77,-0.94,-107.17,-107.17,-109.27
9.62,2.98,-1.53,-112.98,-112.98,-112.98
9.10,1.99,-1.67,-108.29,-107.31,-107.31
9.06,1.52,-1.76,-99.68,-98.28,-98.28
9.41,1.35,-1.87,-85.47,-85.47,-85.47
9.73,1.21,-1.85,-70.77,-70.77,-70.77
9.92,1.24,-1.71,-50.75,-50.75,-50.75
9.91,1.28,-1.69,-19.25,-35.28,-35.28
10.08,1.32,-1.69,-22.82,-22.82,-22.82
10.02,1.34,-1.66,-6.65,-6.65,-6.65
9.90,1.47,-1.67,2.31,5.11,5.11
9.55,1.54,-1.59,15.05,15.05,16.31
9.41,1.67,-1.49,27.86,27.86,27.86
9.40,1.87,-1.49,34.79,34.79,35.84
9.39,1.97,-1.54,42.98,44.87,44.87
9.33,2.00,-1.48,50.40,50.40,52.29
9.34,2.29,-1.46,58.87,58.87,58.87
9.17,2.44,-1.50,64.68,64.68,64.68
8.88,2.51,-1.51,69.44,69.44,69.44
8.93,3.07,-1.40,69.65,69.65,69.65
8.97,3.71,-1.19,66.01,65.45,65.45
8.99,3.93,-1.15,60.27,59.57,59.57
9.07,4.02,-1.24,54.18,54.18,53.27
9.25,4.00,-0.01,43.89,43.89,43.89
9.49,3.85,-1.29,37.24,36.26,36.26
9.57,3.46,-1.60,29.54,29.54,29.12
9.56,3.13,-1.75,27.30,27.30,27.16
9.52,3.07,-1.79,26.53,26.53,26.53
9.50,3.02,-1.88,25.34,25.34,25.34
9.58,3.09,-1.90,23.73,23.73,23.73
9.58,3.13,-1.96,22.26,22.26,22.26
9.43,3.08,-2.01,20.23,20.23,20.23
9.21,3.00,-2.05,18.20,18.20,18.20
9.40,3.13,-2.11,14.91,14.91,14.91
9.40,3.25,-2.11,12.53,12.53,12.53
9.21,3.23,-2.10,9.10,8.68,8.68
9.09,3.27,-2.21,5.25,5.25,4.69
8.82,3.18,-2.17,1.26,1.26,1.26
8.62,3.09,-2.19,-3.36,-3.71,-3.71
8.55,3.10,-2.17,-6.30,-6.79,-6.79
8.60,3.10,-2.15,-9.38,-9.94,-10.22
8.62,3.16,-2.13,-11.90,-11.90,-12.18
8.64,3.17,-2.23,-14.00,-14.00,-14.00
8.61,3.09,-2.18,-15.75,-15.75,-15.75
8.60,3.11,-2.03,-16.59,-16.59,-16.59
8.51,3.13,-1.99,-16.66,-16.66,-16.66
8.48,2.98,-1.91,-16.87,-16.87,-16.87
8.68,3.01,-1.87,-16.80,-16.73,-16.73
8.85,3.16,-1.89,-16.38,-15.96,-15.96
8.73,3.16,-1.87,-15.19,-14.70,-14.70
8.79,3.16,-1.87,-13.65,-13.65,-13.65
8.91,3.15,-1.83,-12.74,-12.60,-12.60
9.08,3.30,-1.81,-12.18,-11.90,-11.90
8.94,3.34,-1.72,-11.13,-11.13,-11.13
8.85,3.24,-1.63,-10.08,-10.08,-10.08
8.94,3.18,-1.64,-9.31,-9.31,-9.31
8.94,3.24,-1.67,-8.54,-8.33,-8.33
8.93,3.23,-1.64,-7.35,-7.35,-7.35
8.89,3.17,-1.58,-5.04,-5.04,-5.04
8.99,3.23,-1.48,-3.36,-3.36,-3.36
9.11,3.37,-1.47,-2.24,-2.24,-2.03
9.14,3.36,-1.45,-1.40,-1.33,-1.33
9.12,3.32,-1.52,-1.19,-1.19,-1.19
9.32,3.38,-1.55,-1.54,-1.54,-1.54
9.17,3.34,-1.44,-1.68,-1.61,-1.61
9.13,3.41,-1.31,-1.54,-1.40,-1.40
9.15,3.42,-1.27,-1.26,-1.47,-1.47
9.17,3.44,-1.20,-1.40,-1.61,-1.61
9.27,3.41,-1.29,-2.17,-2.31,-2.31
9.36,3.46,-1.40,-3.22,-3.22,-3.22
9.27,3.41,-1.44,-4.69,-4.69,-4.69
9.09,3.30,-1.34,-5.18,-5.18,-5.18
9.06,3.33,-1.25,-5.25,-5.18,-5.18
9.12,3.34,-1.20,-5.18,-5.18,-5.18
9.18,3.27,-1.10,-4.97,-4.97,-4.97
9.20,3.24,-1.13,-5.46,-5.46,-5.46
9.08,3.12,-1.22,-5.81,-5.81,-5.81
9.02,3.07,-1.22,-5.60,-5.60,-5.60
9.06,3.20,-1.28,-5.67,-5.74,-5.74
9.02,3.23,-1.35,-6.30,-6.30,-6.30
9.02,3.13,-1.42,-7.84,-7.84,-7.98
9.22,3.21,-1.45,-9.03,-9.38,-9.59
9.27,3.17,-1.46,-10.50,-10.71,-10.71
9.13,2.97,-1.44,-11.20,-11.20,-11.20
9.25,2.97,-1.38,-10.29,-10.29,-10.29
9.52,3.14,-1.36,-8.54,-8.54,-8.54
9.70,3.18,-1.38,-6.30,-6.30,-6.30
9.55,3.08,-1.41,-3.92,-3.71,-3.71
9.42,3.07,-1.63,-2.87,-2.73,-2.73
9.47,3.12,-1.92,-1.96,-1.96,-1.89
9.47,3.24,-1.93,-1.61,-1.40,-1.47
8.99,3.35,-1.91,-1.75,-1.75,-2.03
9.17,3.42,-2.22,-4.27,-4.27,-4.27
9.26,3.52,-2.09,-6.02,-6.02,-6.02
8.82,3.43,-1.81,-6.58,-6.65,-6.65
8.57,3.31,-1.57,-6.09,-5.88,-5.88
8.73,3.41,-1.60,-5.18,-5.18,-4.90
9.11,3.53,-1.58,-3.92,-3.92,-3.92
9.00,3.44,-1.34,-0.98,-0.98,-0.98
8.68,3.39,-1.21,2.17,2.17,2.17
8.44,3.57,-1.27,4.90,4.90,4.90
8.59,3.69,-1.44,6.51,6.51,6.51
8.52,3.63,-1.45,7.00,7.00,7.00
8.39,3.65,-1.40,6.58,6.58,6.58
8.56,3.73,-1.48,6.16,6.16,6.16
8.30,3.70,-1.44,5.81,5.81,5.81
8.38,3.75,-1.43,5.60,5.46,5.46
9.80,4.30,-1.12,1.96,1.96,1.26
9.26,5.17,-0.82,-6.09,-6.09,-7.35
9.61,5.41,-0.63,-13.65,-16.24,-17.57
9.42,5.08,-0.29,-25.97,-25.97,-25.97
9.41,4.77,-0.30,-33.74,-34.37,-34.37
9.20,4.16,-0.25,-37.03,-37.24,-37.24
9.15,3.80,-0.30,-36.54,-36.54,-36.19
8.97,3.56,-0.25,-31.57,-31.57,-31.57
8.49,3.27,0.09,-23.03,-23.03,-23.03
8.32,3.28,0.35,-9.80,-9.80,-9.80
8.55,3.41,0.28,0.70,0.70,0.70
8.40,3.28,0.41,9.10,9.10,9.10
8.65,3.23,0.36,18.90,20.02,20.02
8.91,3.34,0.45,25.41,28.28,28.28
8.91,3.59,0.58,33.04,33.88,35.49
8.97,3.68,0.38,40.39,40.39,40.95
9.22,4.03,0.07,44.73,45.08,45.08
9.41,4.31,-0.37,48.86,48.86,49.28
9.37,4.58,-0.45,50.61,51.03,51.38
9.25,4.69,-0.52,51.80,51.80,51.80
9.74,4.98,-0.92,48.23,48.23,48.23
9.98,5.07,-1.07,43.82,43.82,43.82
10.17,5.12,-1.28,38.43,38.43,38.43
10.14,5.44,-1.48,32.06,31.22,31.22
9.64,5.25,-1.64,14.35,14.35,14.35
9.11,5.13,-1.56,10.22,10.22,10.22
8.74,4.85,-1.24,7.00,7.00,7.00
8.39,4.67,-1.03,5.74,5.67,5.67
8.19,4.57,-0.93,4.83,4.83,4.83
7.90,4.24,-0.69,5.11,5.32,5.32
7.82,4.05,-0.69,6.79,7.00,7.00
7.83,4.22,-0.72,7.98,8.54,8.61
7.68,4.19,-0.64,9.87,10.29,10.50
7.35,4.10,-0.80,11.55,11.55,11.55
7.37,3.99,-1.01,11.34,11.13,11.13
7.32,4.12,-1.12,10.01,10.01,9.94
7.54,4.19,-1.28,7.00,7.00,7.00
7.90,4.23,-1.45,5.18,4.48,4.48
7.73,4.31,-1.56,3.29,3.29,2.94
7.34,4.20,-1.61,2.31,2.31,2.31
7.66,4.69,-1.61,0.07,0.07,0.07
7.59,4.80,-1.83,-2.52,-2.52,-2.52
7.66,4.91,-2.23,-6.37,-6.37,-6.79
7.85,5.19,-2.35,-9.66,-9.66,-9.66
7.51,5.52,-2.18,-9.87,-9.87,-9.87
6.88,5.60,-1.95,-9.45,-9.45,-9.45
6.68,5.67,-1.79,-9.80,-9.87,-9.87
6.98,6.22,-2.01,-11.83,-12.60,-13.02
7.30,6.53,-2.16,-14.63,-15.26,-15.68
7.53,6.81,-2.15,-16.94,-17.50,-17.50
7.33,6.83,-2.03,-18.76,-19.18,-19.25
7.87,7.63,-2.17,-20.23,-20.37,-20.37
7.84,8.04,-2.10,-20.58,-20.58,-20.58
7.36,7.88,-1.69,-20.16,-20.16,-20.16
6.99,7.48,-1.28,-20.09,-20.09,-20.09
7.47,7.81,-1.09,-20.58,-20.58,-20.58
7.55,7.85,-1.06,-20.16,-20.16,-20.16
7.11,7.47,-0.84,-17.22,-17.22,-17.22
6.83,7.25,-0.65,-13.44,-13.44,-13.44
6.36,6.69,-0.24,-6.58,-5.74,-5.74
6.04,6.27,-0.04,-1.33,1.12,1.12
6.05,6.40,0.02,6.72,7.56,7.56
5.98,6.54,0.06,12.81,13.58,13.58
6.23,7.04,0.00,17.08,19.18,19.18
6.30,7.51,-0.08,23.87,24.50,24.50
6.16,7.58,-0.07,28.21,28.21,28.21
6.17,7.70,-0.05,33.88,33.88,33.88
6.32,8.00,0.07,37.10,37.10,37.10
6.54,8.13,0.15,38.43,38.43,38.43
6.74,8.13,0.22,37.87,37.87,37.87
6.96,8.30,0.29,34.51,33.88,33.88
7.03,8.42,0.19,30.73,28.63,28.63
7.20,8.53,-0.01,24.29,23.38,21.35
7.25,8.77,-0.27,15.96,14.84,14.84
7.09,8.69,-0.53,4.27,3.15,3.15
7.14,8.75,-0.78,-5.60,-6.79,-6.79
7.28,9.10,-1.06,-13.30,-15.89,-17.22
7.29,9.06,-1.24,-25.76,-25.76,-25.76
7.21,9.08,-1.22,-36.19,-37.31,-37.31
7.26,9.27,-1.41,-44.73,-44.73,-44.73
7.35,9.07,-1.51,-54.46,-54.46,-54.46
7.29,8.98,-1.57,-60.83,-60.83,-60.83
7.29,9.15,-1.77,-65.31,-65.87,-65.87
7.33,9.14,-1.82,-68.18,-69.02,-69.02
7.13,8.92,-1.69,-69.79,-69.86,-69.86
6.82,8.43,-1.38,-56.91,-55.86,-55.86
6.65,7.95,-1.17,-47.11,-45.64,-42.84
6.80,7.34,-0.89,-35.28,-33.67,-30.52
6.78,6.67,-0.62,-20.93,-19.25,-19.25
6.73,6.30,-0.50,-6.30,-6.30,-4.90
6.75,5.98,-0.37,1.61,4.20,5.32
6.45,5.25,-0.07,12.74,13.93,13.93
4.91,4.71,0.11,21.84,21.84,22.96
5.93,4.58,0.16,30.73,30.73,31.43
5.92,4.51,0.35,35.07,35.07,35.07
5.97,4.50,0.39,40.04,40.04,40.04
6.14,4.68,0.44,43.40,44.52,44.52
5.67,4.50,0.45,49.21,49.21,49.21
5.45,4.63,0.48,52.71,52.99,52.99
5.65,4.83,0.43,54.74,55.37,55.37
5.76,4.69,0.21,56.42,56.49,56.49
6.13,5.00,0.09,55.86,55.72,55.72
6.35,5.23,-0.18,53.20,53.20,53.06
6.31,5.19,-0.32,51.03,51.03,51.03
6.36,5.33,-0.50,48.23,48.23,48.23
7.00,5.86,-0.98,40.74,40.74,40.74
7.69,6.37,-1.55,29.40,28.63,28.63
7.59,6.35,-1.60,24.64,22.75,21.84
8.10,6.65,-1.84,16.94,16.94,13.93
8.40,6.60,-2.03,9.03,9.03,6.23
8.31,6.40,-1.97,-0.70,-0.70,-1.68
8.44,6.29,-2.05,-8.89,-8.89,-9.94
8.60,6.22,-2.13,-14.91,-17.01,-17.92
8.59,6.10,-2.11,-22.33,-22.33,-24.99
8.74,5.93,-2.22,-28.77,-28.77,-29.47
9.04,5.96,-2.29,-34.58,-34.58,-35.07
8.91,5.82,-2.16,-37.17,-37.94,-38.43
8.96,5.66,-2.16,-39.90,-39.90,-40.81
9.27,5.28,-1.99,-43.47,-43.47,-43.47
9.38,5.25,-1.96,-43.75,-43.75,-43.75
9.49,5.17,-1.86,-43.12,-43.12,-42.91
9.30,4.91,-1.77,-41.30,-41.30,-41.30
9.29,4.70,-1.71,-38.36,-38.01,-38.01
9.36,4.57,-1.74,-34.37,-34.37,-34.37
9.27,4.44,-1.57,-30.66,-29.19,-29.19
9.04,4.34,-1.44,-26.81,-26.04,-25.48
9.19,4.33,-1.52,-23.03,-22.68,-22.68
9.25,4.30,-1.61,-19.81,-19.04,-18.69
9.18,4.25,-1.53,-16.80,-16.80,-15.89
9.36,4.26,-1.51,-14.07,-14.07,-13.79
9.75,4.45,-1.61,-11.69,-11.69,-11.69
9.74,4.65,-1.56,-10.50,-10.08,-10.08
9.86,4.88,-1.56,-9.10,-9.10,-8.89
9.79,4.94,-1.57,-8.12,-8.12,-8.12
9.68,4.92,-1.67,-7.56,-7.49,-7.49
9.77,4.90,-1.77,-7.00,-6.72,-6.72
9.63,5.04,-1.84,-6.09,-6.09,-5.81
9.50,5.21,-1.91,-5.04,-5.04,-5.04
9.50,5.38,-2.04,-3.85,-3.85,-3.85
9.44,5.52,-2.20,-1.89,-1.89,-1.89
9.17,5.52,-2.14,0.21,0.21,0.21
9.12,5.76,-2.22,1.40,1.40,1.40
9.15,5.97,-2.39,2.45,2.59,2.59
8.87,6.17,-2.38,3.36,3.64,3.64
8.68,6.30,-2.38,3.99,3.99,3.99
8.47,6.21,-2.48,3.78,3.78,3.78
8.47,6.04,-2.57,3.71,3.71,3.71
8.55,5.90,-2.66,4.13,4.13,4.27
8.23,5.94,-2.65,5.04,5.18,5.18
8.18,5.83,-2.53,6.44,6.44,7.35
8.17,5.62,-2.39,10.01,10.01,10.01
8.04,5.48,-2.19,14.84,14.84,14.84
7.68,5.19,-2.02,20.93,21.63,21.63
7.44,4.97,-2.01,26.95,26.95,26.95
7.43,4.82,-2.12,30.87,30.87,31.57
7.25,4.49,-1.82,37.73,37.73,37.73
6.98,4.28,-1.62,43.12,43.12,43.12
6.90,4.27,-1.60,46.41,47.46,47.46
7.12,4.31,-1.71,49.91,50.12,50.12
7.15,4.14,-1.83,52.15,52.15,52.43
7.15,4.15,-1.83,53.48,53.48,53.69
7.06,4.22,-1.79,54.11,54.11,54.11
7.00,4.24,-1.81,53.20,53.13,53.13
7.14,4.27,-2.00,51.38,51.38,51.03
7.20,4.24,-2.13,48.16,47.67,47.67
7.36,4.27,-2.17,43.82,43.26,43.26
7.38,4.35,-2.23,37.10,37.10,36.54
7.49,4.63,-2.32,31.64,31.64,30.80
7.87,4.72,-2.59,23.17,23.17,23.17
7.94,4.84,-2.57,17.92,17.92,17.92
7.74,4.86,-2.35,11.90,11.90,11.90
7.86,4.95,-2.28,8.12,6.86,6.86
8.35,5.15,-2.39,2.59,1.26,1.26
8.52,5.37,-2.43,-2.87,-2.87,-2.87
8.77,5.47,-2.23,-8.33,-8.33,-8.33
8.87,5.52,-1.97,-10.92,-11.20,-11.20
8.72,5.62,-1.55,-13.30,-13.79,-13.79
8.26,7.71,-0.61,-18.90,-26.88,-26.88
8.44,8.78,0.11,-43.12,-52.78,-52.78
8.25,8.23,-0.29,-68.95,-72.10,-72.10
8.35,6.90,-0.94,-96.67,-98.84,-98.84
8.71,6.05,-1.70,-109.69,-110.46,-110.46
8.87,4.43,-2.09,-111.58,-111.30,-111.30
8.33,3.38,-1.98,-104.30,-103.18,-103.18
8.63,3.28,-1.64,-96.60,-95.55,-95.55
9.01,3.08,-1.58,-90.65,-87.57,-87.57
9.40,3.07,-1.56,-82.74,-81.83,-79.87
9.83,3.08,-1.67,-72.94,-72.94,-71.96
9.86,2.94,-1.73,-64.68,-64.68,-63.63
9.75,2.78,-1.74,-55.58,-54.39,-54.39
9.87,2.79,-1.85,-44.52,-44.52,-43.33
9.98,2.75,-1.83,-38.08,-38.08,-37.10
10.11,2.64,-1.61,-28.21,-28.21,-27.23
10.05,2.68,-1.59,-21.07,-21.07,-21.07
9.88,2.79,-1.47,-14.28,-11.48,-11.48
9.82,2.79,-1.59,-0.77,-0.14,1.40
9.71,2.82,-1.58,4.69,5.39,5.39
9.62,3.06,-1.43,11.13,11.69,11.69
9.65,3.24,-1.48,15.05,15.05,15.40
9.54,4.04,-1.64,25.69,25.69,25.69
9.33,4.20,-1.59,27.93,27.93,27.93
9.15,4.27,-1.63,29.19,29.19,29.19
9.06,4.38,-1.68,29.19,29.19,29.19
9.06,4.27,-1.71,28.91,28.98,28.98
8.82,4.25,-1.72,29.33,29.40,29.40
8.87,4.37,-1.76,29.54,29.68,29.68
8.74,4.41,-1.87,31.36,31.64,31.64
8.69,4.50,-1.87,33.88,34.30,34.30
8.79,4.33,-1.83,36.75,37.24,37.24
8.55,4.22,-1.62,41.23,41.23,41.72
8.12,4.09,-1.59,43.89,43.89,44.17
7.97,3.93,-1.72,45.15,45.15,45.29
8.30,4.19,-1.78,45.01,45.01,45.01
8.36,4.26,-1.83,45.01,45.01,45.01
8.09,4.03,-1.67,45.92,45.92,45.92
7.80,4.01,-1.69,46.06,45.71,45.71
7.91,3.93,-1.81,44.80,44.80,44.66
8.26,4.19,-1.87,43.12,43.12,43.12
8.40,4.32,-1.82,42.91,42.91,42.91
8.23,4.40,-1.68,43.19,43.19,43.19
8.16,4.48,-1.67,42.70,42.70,42.28
8.12,4.63,-1.81,41.44,41.44,41.44
7.95,5.04,-1.84,40.67,40.67,40.67
7.48,5.62,-1.67,39.62,39.62,39.62
7.18,6.16,-1.47,35.42,34.79,34.79
7.32,6.39,-1.42,30.17,27.02,27.02
7.27,6.28,-1.33,20.51,19.18,16.45
7.41,6.26,-1.36,9.10,7.77,7.77
7.67,5.98,-1.36,-5.53,-6.79,-6.79
7.74,5.81,-1.34,-15.40,-15.40,-16.52
7.95,5.70,-1.45,-22.54,-22.54,-22.54
8.15,5.43,-1.48,-29.33,-29.33,-29.33
8.21,5.10,-1.47,-34.93,-34.93,-34.93
8.20,4.84,-1.37,-40.67,-40.67,-40.67
8.25,4.83,-1.35,-43.19,-43.19,-43.61
8.32,4.81,-1.42,-46.27,-46.27,-46.27
8.56,4.63,-1.35,-47.32,-47.60,-47.60
8.57,4.67,-1.26,-48.37,-48.37,-48.37
8.69,4.56,-1.17,-48.72,-48.79,-48.79
8.80,4.56,-1.04,-49.14,-49.14,-49.00
8.83,4.58,-0.95,-49.42,-49.42,-49.42
8.83,4.46,-0.92,-49.63,-49.63,-49.63
9.01,4.44,-0.86,-49.14,-49.14,-49.14
9.00,4.46,-0.72,-48.65,-48.58,-48.58
8.95,4.48,-0.50,-47.74,-47.74,-47.74
9.04,4.45,-0.44,-46.76,-46.76,-46.76
9.09,4.30,-0.42,-45.71,-45.71,-45.71
9.00,4.08,-0.35,-43.54,-43.26,-43.26
9.01,4.00,-0.32,-41.93,-41.02,-41.02
9.04,3.89,-0.35,-38.78,-38.78,-38.43
9.00,3.79,-0.42,-33.04,-33.04,-33.04
9.10,3.82,-0.42,-27.79,-27.79,-27.79
9.17,3.70,-0.48,-21.00,-21.00,-20.16
9.16,3.53,-0.61,-13.23,-13.23,-12.25
9.09,3.30,-0.86,-1.54,-1.54,-1.54
8.98,3.30,-0.97,8.61,8.61,8.61
9.12,3.41,-0.99,15.96,17.22,17.22
9.25,3.56,-1.13,27.02,27.02,28.00
9.22,3.63,-1.18,34.58,34.58,35.56
9.08,3.63,-1.22,42.70,42.70,42.70
8.90,3.71,-1.12,47.39,47.39,47.39
8.94,3.95,-1.13,51.45,52.29,52.29
8.81,4.06,-1.21,54.53,54.53,54.53
8.65,4.08,-1.20,56.70,56.70,56.70
8.60,4.13,-1.29,57.40,57.40,57.40
8.56,4.15,-1.34,57.75,57.68,57.68
8.50,4.15,-1.44,57.68,57.68,57.61
8.57,4.13,-1.56,57.40,57.33,57.33
8.54,4.13,-1.65,56.56,56.56,56.56
8.51,4.16,-1.69,55.79,55.79,55.79
8.61,4.28,-1.82,54.67,54.67,54.67
8.61,4.35,-1.90,51.94,51.94,51.94
8.56,4.37,-1.97,49.63,49.63,49.63
8.59,4.54,-2.08,44.80,44.80,44.80
8.57,4.64,-2.12,40.25,40.25,40.25
8.46,4.65,-2.10,36.54,36.54,36.54
8.58,4.76,-2.21,30.24,30.24,30.24
8.44,4.75,-2.19,25.06,25.06,25.06
8.33,4.72,-2.20,21.21,21.21,21.21
8.38,4.78,-2.25,14.21,14.21,14.21
8.40,4.75,-2.27,8.54,8.54,8.54
8.31,4.81,-2.18,4.83,4.83,4.83
8.18,4.80,-2.06,-1.54,-1.54,-1.54
8.15,4.85,-2.00,-5.81,-5.81,-5.81
8.16,4.74,-1.90,-10.85,-10.85,-11.34
8.28,4.61,-1.92,-14.49,-14.49,-14.98
8.30,4.58,-1.90,-18.06,-18.41,-18.41
8.34,4.64,-1.79,-21.98,-21.98,-22.33
8.28,4.71,-1.68,-25.06,-25.06,-25.55
8.55,4.75,-1.73,-28.49,-28.49,-28.91
8.65,4.71,-1.71,-31.64,-31.64,-31.92
8.68,4.62,-1.68,-33.67,-34.37,-34.65
8.69,4.53,-1.64,-36.05,-36.05,-36.82
8.74,4.44,-1.66,-38.01,-38.01,-38.36
8.72,4.25,-1.60,-39.48,-39.48,-39.48
8.64,4.12,-1.58,-39.62,-39.62,-39.62
8.62,4.05,-1.55,-38.71,-38.71,-38.71
8.68,4.04,-1.50,-37.66,-37.66,-37.66
8.72,4.03,-1.47,-35.84,-35.56,-35.56
8.80,4.00,-1.48,-33.46,-33.11,-33.11
8.74,3.93,-1.43,-30.45,-30.45,-29.82
8.69,3.89,-1.41,-27.51,-26.53,-25.97
8.65,3.84,-1.40,-23.38,-23.38,-21.84
8.75,3.78,-1.44,-17.78,-17.78,-17.22
8.85,3.73,-1.46,-11.83,-11.83,-11.83
8.90,3.68,-1.43,-7.07,-7.07,-6.37
8.94,3.69,-1.44,-0.28,-0.28,-0.28
8.94,3.68,-1.48,4.20,4.20,4.20
8.98,3.74,-1.50,8.54,9.52,9.52
8.94,3.80,-1.43,12.18,12.18,12.81
8.96,3.88,-1.40,15.05,15.05,15.05
8.99,3.95,-1.41,17.43,17.43,17.43
8.80,3.94,-1.37,20.44,20.44,20.44
8.75,3.96,-1.42,22.05,22.05,22.05
8.75,3.96,-1.45,23.87,23.87,23.87
8.68,3.98,-1.47,24.78,24.92,24.92
8.75,4.13,-1.49,25.48,25.48,25.48
8.74,4.23,-1.56,25.76,25.83,25.83
8.67,4.27,-1.56,25.97,25.97,26.04
8.57,4.25,-1.55,26.04,26.04,26.04
8.54,4.25,-1.62,24.99,24.99,24.99
8.57,4.27,-1.67,24.01,23.94,23.94
8.51,4.33,-1.70,22.19,22.19,22.19
8.46,4.35,-1.72,19.74,19.74,19.74
8.63,4.45,-1.74,18.20,17.64,17.64
8.57,4.52,-1.70,16.38,15.61,15.61
8.46,4.56,-1.63,14.21,14.00,13.30
8.50,4.70,-1.67,10.64,10.64,10.64
8.52,4.71,-1.75,6.72,6.72,6.72
8.66,4.70,-1.76,1.82,1.82,1.82
8.67,4.71,-1.69,-1.47,-1.47,-1.47
8.47,4.71,-1.56,-3.99,-3.99,-3.99
8.35,4.69,-1.55,-5.81,-6.44,-6.44
8.44,4.70,-1.60,-8.40,-8.40,-9.17
8.46,4.66,-1.64,-11.41,-11.62,-11.62
8.33,4.56,-1.57,-13.37,-13.65,-13.65
8.36,4.48,-1.52,-14.98,-15.12,-15.12
8.38,4.43,-1.51,-16.17,-16.31,-16.31
8.48,4.36,-1.54,-17.01,-17.01,-17.01
8.66,4.33,-1.63,-18.34,-18.34,-18.62
8.82,4.33,-1.62,-18.97,-19.32,-19.39
8.75,4.35,-1.50,-19.81,-19.81,-19.88
8.58,4.31,-1.44,-19.81,-19.81,-19.81
8.68,4.31,-1.52,-19.60,-19.60,-19.60
8.66,4.26,-1.54,-18.69,-18.55,-18.55
8.56,4.19,-1.52,-17.50,-16.87,-16.87
8.62,4.13,-1.55,-15.12,-14.77,-14.77
8.64,4.10,-1.57,-11.97,-11.97,-11.55
8.74,4.02,-1.55,-9.17,-9.17,-8.75
8.68,3.97,-1.58,-5.18,-5.18,-5.18
8.72,3.92,-1.59,-2.87,-2.24,-2.24
8.85,3.98,-1.66,-0.21,-0.21,0.28
8.83,4.08,-1.67,1.82,1.82,1.82
8.76,4.19,-1.60,3.36,3.36,3.36
8.72,4.23,-1.60,3.57,3.57,3.57
8.84,4.29,-1.69,3.22,3.22,3.22
8.79,4.30,-1.69,2.59,2.59,2.59
8.71,4.35,-1.66,1.68,1.47,1.47
8.72,4.33,-1.61,0.56,0.56,0.56
8.69,4.32,-1.64,-0.70,-0.70,-0.70
8.64,4.30,-1.66,-1.33,-1.54,-1.54
8.47,4.22,-1.56,-1.89,-1.89,-1.82
8.59,4.29,-1.63,-2.17,-2.17,-2.17
8.48,4.28,-1.60,-2.24,-2.24,-2.24
8.43,4.25,-1.60,-1.96,-2.03,-2.03
8.54,4.27,-1.71,-2.24,-2.24,-2.17
8.63,4.26,-1.74,-2.59,-2.59,-2.59
8.59,4.24,-1.72,-2.73,-2.73,-2.73
8.53,4.21,-1.69,-2.24,-2.24,-2.24
8.54,4.25,-1.71,-1.54,-1.54,-1.54
8.64,4.29,-1.77,-1.19,-1.19,-1.19
8.69,4.24,-1.74,-0.84,-0.84,-0.84
8.70,4.22,-1.70,-0.28,-0.28,-0.28
8.68,4.18,-1.66,0.28,0.28,0.35
8.61,4.22,-1.60,0.84,0.84,0.70
8.72,4.28,-1.65,0.77,0.77,0.77
8.73,4.25,-1.67,0.91,1.05,1.05
8.55,4.18,-1.51,1.96,2.24,2.24
8.48,4.14,-1.45,3.36,3.36,3.57
8.53,4.24,-1.55,4.62,4.69,4.69
8.58,4.23,-1.57,5.60,5.60,5.95
8.77,4.21,-1.69,7.49,7.49,7.70
8.68,4.20,-1.67,8.96,8.96,9.17
8.56,4.11,-1.67,10.92,10.92,11.13
8.62,4.06,-1.72,12.46,12.46,12.53
8.59,4.02,-1.79,13.37,13.72,13.86
8.81,4.15,-1.98,15.26,15.19,15.19
8.84,4.12,-2.01,14.98,14.91,14.91
8.84,4.09,-1.97,14.91,14.91,14.91
8.77,4.08,-2.00,15.19,15.26,15.26
8.83,4.10,-2.02,15.26,15.26,15.19
8.86,4.14,-2.03,15.05,15.05,15.12
8.80,4.14,-2.01,14.84,14.84,14.70
8.71,4.15,-2.00,14.56,14.56,14.21
8.71,4.17,-2.05,13.93,13.93,13.93
8.60,4.09,-1.97,14.21,14.21,14.21
8.43,4.00,-1.92,14.70,14.70,14.70
8.55,4.02,-2.00,15.33,15.33,15.47
8.49,3.94,-2.03,16.59,16.59,16.59
8.61,4.02,-2.16,16.66,16.66,16.59
8.47,4.03,-2.10,16.66,16.66,16.66
8.44,4.07,-2.13,16.66,16.66,16.66
8.53,4.11,-2.19,15.54,15.54,15.54
8.58,4.10,-2.21,14.70,14.14,14.14
8.65,4.10,-2.22,12.88,12.88,12.88
8.69,4.13,-2.34,10.92,10.71,10.71
8.72,4.16,-2.37,9.66,8.96,8.96
8.74,4.19,-2.38,7.84,7.00,7.00
8.71,4.19,-2.37,5.60,5.25,4.62
8.59,4.25,-2.35,2.31,2.31,2.31
8.47,4.24,-2.34,-1.26,-1.47,-1.47
8.43,4.18,-2.32,-3.92,-4.27,-4.27
8.50,4.12,-2.36,-6.93,-6.93,-6.93
8.47,4.14,-2.30,-9.31,-9.31,-9.31
8.49,4.14,-2.30,-11.62,-11.62,-11.62
8.50,4.17,-2.27,-13.09,-13.30,-13.30
8.48,4.13,-2.22,-14.42,-14.42,-14.63
8.48,4.10,-2.23,-15.40,-15.40,-15.40
8.53,4.07,-2.23,-16.80,-16.94,-16.94
8.51,4.10,-2.17,-17.99,-17.99,-18.20
8.47,4.11,-2.18,-19.88,-19.88,-19.88
8.57,4.15,-2.23,-21.14,-21.56,-21.56
8.70,4.14,-2.25,-22.61,-22.96,-22.96
8.60,4.02,-2.15,-23.31,-23.31,-23.31
8.59,3.92,-2.12,-23.31,-23.31,-23.24
8.61,3.88,-2.12,-23.24,-23.24,-23.24
8.75,3.84,-2.14,-22.89,-22.89,-22.89
8.81,3.76,-2.12,-22.54,-22.54,-22.54
8.86,3.73,-2.10,-21.84,-21.84,-21.84
8.99,3.78,-2.13,-21.35,-21.21,-21.21
8.92,3.82,-2.05,-20.44,-20.37,-20.37
8.88,3.77,-2.02,-18.90,-18.90,-18.69
8.85,3.83,-1.96,-17.43,-17.43,-17.36
8.77,3.82,-1.89,-15.61,-15.12,-15.12
8.76,3.79,-1.94,-13.44,-13.44,-12.88
8.82,3.72,-1.99,-10.71,-10.71,-10.71
8.85,3.73,-1.94,-7.21,-7.21,-6.58
8.97,3.66,-1.96,-3.08,-2.45,-2.45
8.88,3.60,-1.92,3.22,3.22,3.78
8.78,3.65,-1.82,8.47,8.47,9.31
8.77,3.65,-1.79,12.67,14.07,14.63
8.88,3.74,-1.88,17.64,17.64,19.32
8.89,3.85,-1.94,21.84,21.84,23.24
8.81,3.94,-1.93,25.41,25.41,25.90
8.75,3.97,-2.03,31.85,31.85,32.27
8.59,3.91,-1.96,34.65,34.65,35.00
8.51,3.98,-1.98,37.10,37.10,37.31
8.55,4.13,-2.06,38.64,38.64,38.64
8.42,4.28,-2.05,39.69,39.83,39.83
8.29,4.46,-2.03,39.69,39.41,39.41
8.29,4.56,-2.11,38.15,38.01,38.01
8.36,4.64,-2.23,36.54,35.70,35.70
8.24,4.59,-2.21,34.16,33.88,33.32
8.14,4.58,-2.14,31.99,31.78,31.78
8.12,4.58,-2.16,28.77,28.28,28.28
8.12,4.61,-2.21,25.20,25.20,24.85
8.13,4.59,-2.27,21.28,21.28,20.65
8.27,4.67,-2.33,18.06,16.94,16.24
8.37,4.74,-2.39,13.65,13.65,11.97
8.33,4.67,-2.39,8.47,8.47,8.47
8.44,4.53,-2.54,-1.33,-1.33,-1.82
8.51,4.47,-2.57,-4.62,-5.67,-6.23
8.51,4.42,-2.51,-9.03,-9.45,-9.45
8.51,4.37,-2.47,-12.11,-12.39,-12.39
8.46,4.43,-2.45,-14.77,-14.77,-15.19
8.38,4.52,-2.48,-17.71,-18.13,-18.13
8.28,4.58,-2.44,-20.72,-21.07,-21.07
8.29,4.50,-2.41,-23.31,-23.59,-23.59
8.32,4.38,-2.32,-25.34,-25.34,-25.34
8.34,4.30,-2.27,-25.83,-25.83,-25.83
8.24,4.28,-2.26,-26.11,-26.11,-26.11
8.28,4.18,-2.28,-26.04,-26.25,-26.25
8.41,4.13,-2.29,-26.46,-26.46,-26.46
8.50,4.17,-2.25,-26.88,-26.88,-26.88
8.55,4.22,-2.20,-27.09,-27.09,-27.09
8.58,4.15,-2.12,-27.16,-27.44,-27.44
8.71,4.12,-2.18,-27.72,-27.72,-27.72
8.77,4.11,-2.28,-28.35,-28.28,-28.28
8.71,4.06,-2.19,-28.21,-28.14,-28.14
8.65,4.05,-2.11,-27.72,-27.72,-27.58
8.72,4.02,-2.11,-27.23,-27.23,-27.02
8.86,4.05,-2.18,-26.74,-26.74,-26.67
8.74,3.95,-2.02,-24.15,-24.15,-24.15
8.71,3.88,-1.98,-22.05,-22.05,-22.05
8.75,3.80,-1.99,-19.95,-19.67,-19.67
8.90,3.80,-2.02,-17.50,-17.50,-17.50
8.85,3.75,-2.00,-14.77,-14.77,-14.35
8.70,3.65,-1.90,-11.76,-11.76,-11.34
8.71,3.62,-1.89,-8.61,-8.61,-8.61
8.82,3.62,-1.94,-4.76,-4.76,-4.76
8.80,3.68,-1.95,-2.17,-2.17,-2.17
8.81,3.76,-1.95,-0.14,-0.14,-0.14
8.75,3.81,-1.93,1.12,1.33,1.33
8.77,3.89,-1.96,2.66,2.66,2.73
8.75,3.87,-1.99,3.36,3.36,3.71
8.82,3.92,-2.09,4.06,4.06,4.13
8.59,3.94,-2.04,5.60,5.60,5.67
8.65,3.97,-2.08,5.88,5.88,5.88
8.71,4.02,-2.04,5.95,5.95,5.95
8.61,4.02,-1.96,6.02,6.02,6.02
8.62,4.03,-1.93,5.25,5.25,5.25
8.76,4.01,-2.02,3.15,3.15,3.15
8.73,3.99,-1.94,2.10,2.10,2.10
8.72,3.94,-1.92,1.89,1.96,1.89
8.70,3.91,-1.97,2.03,2.03,2.10
8.61,3.84,-2.02,2.73,2.87,2.87
8.68,3.80,-2.10,4.20,4.20,4.27
8.68,3.84,-2.11,5.32,5.60,5.81
8.68,3.83,-2.15,7.56,7.56,7.56
8.65,3.83,-2.15,10.43,10.85,10.85
8.70,3.82,-2.15,13.30,13.58,13.58
8.79,3.81,-2.15,15.82,16.24,16.24
8.75,3.77,-2.15,19.46,19.46,19.88
8.86,3.87,-2.34,31.36,31.36,31.36
8.81,4.02,-2.35,33.18,33.53,33.53
8.75,4.09,-2.36,34.93,35.14,35.14
8.61,4.09,-2.30,36.19,36.26,36.26
8.54,4.06,-2.34,37.31,37.31,37.59
8.45,4.10,-2.34,38.01,38.01,38.08
8.34,4.13,-2.37,38.78,38.92,38.92
8.30,4.17,-2.45,39.20,39.20,39.41
8.25,4.18,-2.47,39.69,39.69,39.69
8.24,4.24,-2.46,40.04,40.04,40.04
8.40,4.29,-2.54,39.97,39.97,39.97
8.45,4.35,-2.58,39.97,39.97,39.97
8.47,4.35,-2.60,40.04,40.04,40.11
8.32,4.36,-2.55,40.39,40.39,40.39
8.31,4.45,-2.62,40.04,39.90,39.90
8.30,4.52,-2.67,39.20,39.20,39.20
8.22,4.55,-2.70,38.15,38.15,38.15
8.18,4.56,-2.72,37.31,37.31,37.31
8.15,4.60,-2.75,36.33,36.33,36.33
8.27,4.75,-2.90,34.79,34.79,34.79
8.26,4.84,-2.90,32.13,32.13,32.13
8.08,4.87,-2.86,29.68,29.68,29.68
7.91,4.91,-2.74,26.32,25.97,25.97
7.81,5.09,-2.64,23.10,21.28,21.28
7.94,5.24,-2.66,17.50,15.89,15.19
8.00,5.22,-2.68,9.73,9.73,9.73
7.82,5.04,-2.61,3.78,3.22,3.22
7.76,4.92,-2.59,-0.49,-0.49,-0.49
7.74,4.96,-2.60,-5.67,-5.67,-5.67
7.74,5.03,-2.71,-9.31,-10.71,-10.71
7.94,5.08,-2.87,-14.98,-14.98,-16.45
7.97,4.99,-2.77,-20.02,-20.65,-21.98
7.92,4.84,-2.65,-26.60,-27.30,-27.30
8.00,4.79,-2.63,-32.90,-32.90,-33.60
8.09,5.05,-2.83,-44.80,-44.80,-44.80
8.02,5.21,-2.81,-49.28,-50.89,-50.89
7.78,5.17,-2.73,-56.28,-56.28,-57.12
7.81,5.21,-2.67,-63.28,-65.03,-65.03
7.99,4.81,-2.49,-84.07,-84.07,-84.56
8.06,4.67,-2.49,-88.34,-88.34,-88.83
8.30,4.59,-2.52,-91.28,-92.05,-92.47
8.26,4.50,-2.43,-94.22,-94.71,-94.85
8.12,4.35,-2.30,-95.90,-95.97,-95.97
8.16,4.25,-2.21,-95.62,-95.62,-95.41
8.29,4.21,-2.08,-94.08,-94.08,-93.87
8.40,4.12,-2.06,-92.12,-91.35,-91.00
8.57,3.99,-1.99,-87.43,-87.43,-87.43
8.44,3.75,-1.79,-81.48,-80.78,-80.78
8.35,3.58,-1.79,-75.88,-75.88,-75.88
8.57,3.43,-1.89,-66.01,-66.01,-66.01
8.73,3.29,-1.90,-58.87,-56.35,-56.35
8.92,3.24,-1.72,-46.69,-46.69,-46.69
9.09,3.18,-1.77,-32.06,-32.06,-32.06
9.24,3.22,-1.82,-22.26,-22.26,-22.26
9.35,3.16,-1.78,-10.08,-8.75,-8.75
9.45,3.23,-1.76,-2.45,1.19,1.19
9.46,3.30,-1.71,6.79,7.91,9.94
9.45,3.57,-1.78,16.52,17.29,17.29
9.36,3.70,-1.75,22.96,22.96,22.96
9.14,3.77,-1.53,27.09,28.00,28.00
9.00,3.96,-1.43,30.17,30.17,30.66
8.94,4.33,-1.46,31.78,31.78,31.85
8.81,4.54,-1.50,31.99,31.99,31.99
8.62,4.68,-1.52,31.85,31.85,31.85
8.51,4.63,-1.55,32.13,32.13,32.13
8.49,4.45,-1.61,33.81,33.81,33.81
8.43,4.27,-1.64,37.17,37.17,37.17
8.33,4.12,-1.71,40.53,40.53,40.53
8.28,4.08,-1.85,46.20,46.20,46.20
8.35,4.13,-1.98,49.14,49.14,49.63
8.37,4.20,-2.08,52.64,52.64,71.33
8.41,4.29,-2.20,55.58,55.58,56.07
8.35,4.43,-2.26,57.68,57.68,58.03
8.26,4.53,-2.29,59.08,59.08,59.29
8.26,4.58,-2.33,59.92,59.92,60.06
8.21,4.77,-2.39,59.99,59.99,59.99
8.22,4.95,-2.46,59.01,59.01,59.01
8.15,4.96,-2.48,58.17,57.89,57.89
8.02,4.95,-2.43,56.14,56.14,56.00
8.04,5.06,-2.56,54.18,54.18,53.97
8.13,5.15,-2.62,50.68,50.68,50.68
7.95,5.13,-2.54,48.51,47.74,47.74
7.89,5.13,-2.55,44.94,44.94,44.94
7.97,5.11,-2.57,42.35,42.35,42.35
7.87,5.08,-2.46,39.13,39.13,39.13
7.83,5.09,-2.44,37.45,37.45,36.82
8.02,5.13,-2.51,35.49,35.49,35.49
7.98,5.02,-2.46,34.02,34.02,34.02
7.87,4.92,-2.41,33.39,33.39,33.39
7.75,4.93,-2.40,32.69,32.69,32.55
7.71,4.99,-2.46,30.52,30.52,30.52
7.86,5.13,-2.58,28.49,28.49,27.72
7.87,5.15,-2.60,25.20,25.20,25.20
7.71,5.13,-2.46,22.89,22.75,22.75
7.74,5.17,-2.45,21.35,20.37,20.37
7.98,5.23,-2.60,17.64,17.64,17.64
7.96,5.17,-2.59,14.63,14.63,14.42
7.92,5.09,-2.59,12.32,11.76,11.76
7.93,5.05,-2.62,7.49,7.49,7.49
7.93,5.07,-2.64,5.53,5.53,5.11
7.93,5.16,-2.67,2.66,2.66,2.38
7.91,5.19,-2.67,0.35,0.35,0.21
7.91,5.18,-2.65,-1.26,-1.89,-2.24
7.98,5.08,-2.64,-3.57,-3.57,-4.41
8.03,4.90,-2.59,-5.46,-5.46,-5.46
8.03,4.87,-2.62,-6.23,-6.30,-6.30
7.91,4.95,-2.60,-6.65,-6.72,-6.72
7.81,4.96,-2.64,-7.56,-7.56,-7.70
7.78,4.80,-2.67,-8.26,-8.26,-8.40
8.06,4.64,-2.89,-10.29,-10.36,-10.36
8.01,4.62,-2.77,-10.36,-10.36,-10.50
7.77,4.73,-2.68,-10.29,-10.29,-10.29
7.81,4.85,-2.76,-10.57,-10.57,-10.57
7.88,4.84,-2.81,-11.48,-11.48,-11.48
7.90,4.74,-2.87,-12.60,-12.60,-12.60
8.00,4.65,-3.02,-14.49,-14.49,-14.49
8.15,4.59,-3.07,-15.75,-16.10,-16.10
8.16,4.54,-3.03,-17.08,-17.08,-17.22
8.25,4.51,-3.00,-18.55,-18.55,-18.55
8.42,4.48,-2.99,-19.46,-19.46,-19.60
8.40,4.40,-2.93,-21.00,-21.00,-21.00
8.32,4.39,-2.99,-22.68,-23.10,-23.10
8.34,4.53,-3.05,-26.46,-26.46,-27.02
8.34,4.65,-3.07,-29.47,-30.59,-31.08
8.20,4.73,-3.11,-34.93,-34.93,-34.93
8.26,4.80,-3.11,-40.25,-40.25,-40.81
8.16,4.79,-2.99,-44.31,-44.94,-44.94
8.17,4.72,-2.90,-48.86,-49.91,-50.47
8.20,4.73,-2.81,-53.34,-54.46,-54.46
8.26,4.69,-2.79,-57.26,-58.24,-58.24
8.19,4.66,-2.66,-60.62,-61.18,-61.18
8.27,4.50,-2.63,-63.21,-63.49,-63.49
8.23,4.31,-2.57,-64.96,-64.96,-64.96
8.26,4.23,-2.48,-66.22,-66.22,-66.29
8.21,4.13,-2.40,-66.85,-67.20,-67.34
8.31,4.12,-2.35,-67.83,-67.83,-67.97
8.38,4.10,-2.33,-68.39,-68.39,-68.25
8.39,4.10,-2.30,-67.83,-67.83,-67.76
8.52,4.12,-2.29,-66.99,-66.99,-66.85
8.58,4.08,-2.22,-65.10,-65.10,-65.10
8.64,4.05,-2.21,-63.63,-63.21,-63.21
8.81,4.02,-2.23,-61.18,-60.34,-60.34
8.83,3.98,-2.11,-56.42,-56.42,-55.72
8.71,3.79,-1.93,-48.23,-48.23,-48.23
8.76,3.78,-1.91,-40.81,-40.81,-40.81
8.86,3.67,-1.91,-34.51,-32.34,-32.34
8.91,3.50,-1.89,-25.48,-25.48,-23.10
8.89,3.44,-1.89,-13.37,-13.37,-13.37
8.93,3.48,-1.96,-3.50,-3.50,-3.50
8.95,3.44,-1.99,3.78,6.09,6.09
8.88,3.49,-2.00,12.95,15.12,15.12
8.78,3.55,-2.01,21.28,21.28,22.96
8.75,3.79,-2.11,28.77,29.54,29.54
8.60,4.08,-2.11,33.88,34.37,34.37
8.54,4.41,-2.12,37.24,37.24,37.45
8.45,4.55,-2.11,38.29,38.29,38.36
8.41,4.67,-2.14,38.57,38.64,38.78
8.48,4.68,-2.22,38.92,38.92,38.92
8.58,4.58,-2.26,40.18,40.39,40.39
8.34,4.51,-2.18,42.56,42.91,42.91
8.25,4.47,-2.20,44.80,45.92,45.92
8.36,4.50,-2.34,47.81,48.23,48.79
8.29,4.47,-2.38,50.47,50.47,50.82
8.15,4.44,-2.36,54.04,54.04,54.53
8.02,4.52,-2.37,56.70,56.70,57.12
7.94,4.58,-2.38,58.24,58.66,58.73
8.03,4.73,-2.46,59.08,59.08,59.08
8.24,4.87,-2.64,58.94,58.94,58.94
8.04,4.86,-2.57,59.22,59.22,59.22
7.90,4.85,-2.49,59.57,59.50,59.50
8.03,4.98,-2.57,59.08,59.08,59.08
8.09,5.11,-2.70,57.33,57.33,57.19
8.03,5.11,-2.71,56.07,55.58,55.30
7.93,5.08,-2.64,54.32,54.32,54.11
7.75,5.10,-2.63,51.87,51.87,51.73
7.85,5.13,-2.78,49.77,49.77,49.77
7.82,5.13,-2.81,47.11,47.11,47.11
7.71,5.12,-2.77,44.52,44.52,44.52
7.63,5.09,-2.75,42.14,41.86,41.86
7.46,5.09,-2.71,40.39,40.11,40.11
7.48,5.18,-2.79,38.08,38.08,37.87
7.72,5.35,-2.89,33.95,33.95,33.39
7.59,5.36,-2.80,30.87,30.87,30.87
7.52,5.26,-2.77,26.53,26.53,26.53
7.71,5.17,-2.75,23.66,23.66,23.66
7.89,5.17,-2.80,20.58,20.16,19.25
8.02,5.25,-2.91,17.01,16.73,15.89
7.81,5.10,-2.84,13.72,13.72,13.58
7.70,4.96,-2.74,12.25,12.25,12.04
7.81,4.97,-2.78,10.92,10.92,10.78
7.90,4.97,-2.89,9.10,9.10,9.10
7.79,5.01,-2.90,8.05,7.63,7.63
7.76,5.11,-2.92,6.44,6.44,5.88
7.72,5.10,-2.90,4.48,4.48,4.48
7.76,5.09,-2.90,3.36,2.94,2.94
7.81,5.03,-2.85,2.10,2.10,2.10
7.91,4.99,-2.88,1.54,1.54,1.54
8.01,4.97,-2.91,1.54,1.54,1.54
8.04,4.93,-2.92,1.54,1.54,1.61
8.05,4.82,-2.89,1.54,1.54,1.54
8.04,4.81,-2.90,1.68,1.68,1.68
7.91,4.84,-2.87,1.82,1.96,1.89
7.78,4.80,-2.82,2.03,2.03,2.03
7.82,4.76,-2.87,1.19,1.19,1.19
8.07,4.84,-2.95,0.28,0.14,0.14
8.02,4.91,-2.95,-1.26,-1.26,-1.33
7.89,4.88,-2.84,-2.31,-2.31,-2.45
7.90,4.88,-2.82,-3.29,-3.64,-3.92
7.96,4.97,-2.84,-5.46,-6.16,-6.58
8.08,5.06,-2.89,-8.89,-9.38,-9.38
7.94,5.08,-2.88,-12.95,-12.95,-13.37
7.69,5.04,-2.81,-16.03,-16.03,-16.03
7.60,5.06,-2.81,-19.11,-19.11,-19.11
7.70,5.08,-2.90,-24.01,-24.01,-24.01
7.96,4.94,-2.84,-36.96,-36.96,-36.96
8.01,4.83,-2.81,-39.34,-39.83,-39.83
8.04,4.76,-2.78,-43.05,-43.05,-43.40
8.09,4.78,-2.81,-45.50,-46.41,-46.83
8.17,4.76,-2.85,-48.86,-48.86,-50.05
8.03,4.77,-2.78,-51.94,-51.94,-52.36
7.96,4.77,-2.72,-55.93,-55.93,-55.93
8.06,4.78,-2.74,-59.08,-59.08,-59.36
8.12,4.72,-2.68,-61.88,-61.88,-62.16
8.31,4.68,-2.71,-63.77,-63.77,-64.05
8.26,4.61,-2.56,-65.38,-65.38,-65.38
8.22,4.48,-2.52,-65.94,-66.08,-66.08
8.30,4.42,-2.49,-66.64,-66.64,-66.71
8.30,4.35,-2.48,-66.85,-66.85,-66.85
8.28,4.31,-2.46,-66.43,-66.43,-66.43
8.28,4.26,-2.43,-65.59,-65.59,-65.59
8.37,4.24,-2.43,-63.91,-63.91,-63.91
8.37,4.20,-2.36,-62.37,-62.02,-62.02
8.47,4.13,-2.29,-60.41,-59.78,-59.78
8.66,4.04,-2.28,-57.05,-57.05,-56.56
8.80,3.99,-2.25,-51.73,-51.73,-51.73
8.84,3.95,-2.18,-47.74,-47.74,-47.74
8.79,3.97,-2.02,-40.60,-40.60,-40.60
8.77,3.95,-1.97,-36.05,-35.35,-35.35
8.76,4.00,-1.98,-28.70,-28.70,-28.70
8.75,4.09,-2.00,-23.10,-23.10,-22.54
8.76,4.20,-1.90,-18.62,-18.62,-17.92
8.69,4.17,-1.85,-12.88,-12.88,-12.88
8.67,4.11,-1.86,-9.80,-8.82,-8.82
8.70,4.05,-2.01,-6.02,-6.02,-5.04
8.65,4.09,-2.03,-2.17,-2.17,-2.17
8.57,4.14,-1.98,2.24,2.24,2.24
8.56,4.29,-1.92,4.83,4.83,4.83
8.65,4.50,-1.94,6.30,6.30,6.30
8.51,4.48,-1.97,7.56,7.56,7.56
8.28,4.51,-1.90,9.66,9.80,9.80
8.20,4.58,-1.85,11.27,11.27,11.27
8.28,4.72,-1.90,12.04,12.04,12.04
8.34,4.71,-1.96,13.02,13.02,13.02
8.34,4.69,-1.96,13.86,14.35,14.35
8.34,4.66,-1.97,15.89,16.59,16.59
8.26,4.54,-1.88,18.69,18.69,19.60
8.18,4.52,-1.87,21.49,21.84,21.84
8.22,4.69,-1.97,25.20,25.48,25.48
8.24,4.82,-2.04,27.23,27.37,27.37
8.29,4.89,-2.12,28.35,28.35,28.35
8.38,4.87,-2.16,29.54,29.54,29.54
8.37,4.76,-2.19,31.01,31.01,31.01
8.27,4.67,-2.15,33.25,33.25,33.25
8.19,4.69,-2.20,36.96,36.96,36.96
8.25,4.81,-2.29,39.41,39.62,39.62
8.16,4.89,-2.34,41.23,42.00,42.00
7.99,4.91,-2.36,43.82,43.82,43.82
7.94,4.95,-2.40,45.64,45.64,45.64
7.85,4.91,-2.44,46.90,46.90,46.90
7.76,4.91,-2.43,47.95,48.30,48.30
7.85,4.99,-2.51,49.07,49.07,49.28
7.94,5.15,-2.58,49.77,49.77,49.77
7.91,5.32,-2.54,49.91,49.91,49.91
7.81,5.26,-2.55,49.49,49.49,49.49
7.84,5.12,-2.59,48.72,48.58,48.58
7.87,4.96,-2.64,48.23,48.23,48.23
7.94,4.92,-2.74,48.16,48.16,48.16
7.85,5.01,-2.71,48.44,48.37,48.37
7.77,5.15,-2.70,48.09,47.67,47.67
7.75,5.22,-2.74,45.99,45.64,45.64
7.76,5.19,-2.79,43.33,43.12,43.12
7.69,5.14,-2.79,40.88,40.60,40.60
7.68,5.21,-2.79,38.43,38.43,38.43
7.70,5.31,-2.81,35.14,34.79,34.79
7.70,5.36,-2.90,32.48,31.15,31.15
7.59,5.36,-2.92,28.77,28.35,27.30
7.61,5.29,-2.97,24.71,24.15,24.15
7.61,5.20,-2.90,20.02,19.53,19.53
7.68,5.19,-2.90,17.43,17.01,16.10
7.85,5.20,-2.98,14.00,13.58,13.58
7.89,5.14,-2.98,10.29,9.94,9.94
7.77,5.12,-2.93,7.91,7.56,7.56
7.80,5.12,-2.91,4.69,4.69,4.41
7.86,5.17,-2.92,2.59,1.61,1.61
7.80,5.18,-2.84,-1.19,-1.19,-1.19
7.88,5.26,-2.88,-4.13,-4.48,-4.48
7.96,5.21,-2.89,-7.07,-7.35,-7.35
7.88,5.17,-2.89,-8.12,-8.12,-8.26
7.86,5.07,-2.83,-8.12,-8.12,-8.12
7.83,4.93,-2.83,-7.42,-7.07,-7.07
7.61,4.72,-2.74,-5.32,-5.32,-5.25
7.60,4.68,-2.73,-2.80,-2.80,-2.80
7.72,4.74,-2.85,-1.19,-1.19,-1.19
7.78,4.77,-2.86,0.56,0.56,0.56
7.88,4.74,-2.88,1.54,1.89,1.89
8.00,4.82,-2.90,3.01,3.01,3.15
7.98,4.91,-2.81,3.85,3.85,3.85
7.93,4.95,-2.82,3.92,3.71,3.71
8.07,5.06,-2.90,2.94,2.45,2.45
8.18,5.07,-3.01,1.12,1.12,0.63
8.03,5.04,-2.92,-0.42,-0.42,-0.42
7.83,4.97,-2.79,-2.03,-2.03,-2.03
7.90,5.02,-2.82,-3.50,-3.50,-3.50
8.01,5.01,-2.89,-4.69,-5.04,-5.04
7.94,4.95,-2.81,-6.23,-6.23,-6.23
7.88,4.88,-2.74,-6.93,-6.93,-7.00
7.90,4.89,-2.77,-8.26,-8.26,-8.26
7.98,4.96,-2.85,-9.80,-9.80,-9.80
7.85,4.97,-2.80,-11.06,-11.06,-11.06
7.86,5.04,-2.79,-13.23,-13.23,-13.23
7.94,5.14,-2.80,-14.56,-14.56,-14.98
7.79,5.14,-2.70,-16.59,-16.80,-16.80
7.72,5.06,-2.67,-19.11,-19.11,-19.32
7.81,5.06,-2.72,-20.79,-21.35,-21.63
7.97,5.04,-2.78,-23.03,-23.59,-23.80
7.93,4.96,-2.72,-25.20,-25.20,-25.20
7.84,4.88,-2.67,-25.83,-26.25,-26.25
7.92,4.93,-2.69,-27.30,-27.30,-27.30
8.06,4.98,-2.78,-29.40,-29.61,-29.61
8.07,5.01,-2.78,-31.36,-31.64,-31.64
7.93,4.99,-2.63,-33.39,-33.39,-33.46
7.90,4.95,-2.62,-34.30,-34.30,-34.30
7.94,4.98,-2.58,-35.63,-35.63,-35.63
8.04,5.01,-2.58,-36.61,-36.61,-36.82
8.03,5.03,-2.54,-38.01,-38.01,-38.01
7.98,5.02,-2.46,-38.92,-38.92,-38.92
8.01,4.99,-2.42,-40.88,-40.88,-41.02
8.15,5.01,-2.46,-41.51,-41.79,-41.72
8.14,4.89,-2.36,-41.79,-41.58,-41.58
8.02,4.76,-2.24,-40.81,-40.81,-40.67
8.06,4.74,-2.21,-39.83,-39.83,-39.83
8.07,4.80,-2.21,-39.27,-39.13,-39.13
8.10,4.83,-2.18,-38.71,-38.71,-38.71
8.20,4.86,-2.16,-38.36,-38.36,-38.36
8.17,4.81,-2.12,-37.45,-37.31,-37.31
8.23,4.78,-2.12,-36.19,-36.19,-36.19
8.42,4.69,-2.06,-31.36,-31.08,-31.08
8.39,4.64,-2.08,-29.54,-29.54,-29.40
8.32,4.58,-2.11,-28.70,-28.70,-28.70
8.33,4.55,-2.13,-28.35,-28.35,-28.35
8.32,4.52,-2.13,-28.00,-28.00,-28.00
8.30,4.44,-2.03,-26.95,-26.95,-26.95
8.33,4.33,-2.01,-25.13,-24.01,-24.01
8.40,4.28,-1.94,-21.00,-21.00,-21.00
8.48,4.27,-1.92,-16.45,-16.03,-16.03
8.48,4.19,-1.81,-2.80,-2.80,-2.24
8.45,4.20,-1.78,3.50,3.50,3.50
8.50,4.23,-1.82,7.77,7.77,7.77
8.59,4.33,-1.97,11.06,11.06,11.06
8.66,4.38,-2.04,13.65,13.65,13.65
8.59,4.37,-2.03,16.38,16.38,16.38
8.56,4.40,-2.04,18.69,19.11,19.11
8.54,4.45,-2.04,20.93,21.14,21.14
8.54,4.48,-2.10,22.40,22.40,22.61
8.58,4.49,-2.20,23.52,23.52,23.94
8.50,4.47,-2.22,25.48,25.48,25.48
8.27,4.40,-2.15,27.86,27.86,27.86
8.24,4.44,-2.15,29.96,29.96,29.96
8.35,4.56,-2.30,31.22,31.22,31.22
8.24,4.55,-2.30,31.71,31.85,31.85
8.11,4.57,-2.27,32.41,32.41,32.41
8.19,4.63,-2.34,32.48,32.55,32.55
8.32,4.77,-2.43,32.34,32.41,32.41
8.15,4.75,-2.33,31.92,31.85,31.85
8.08,4.79,-2.24,30.66,30.66,30.59
8.19,4.83,-2.34,28.63,28.63,28.28
8.20,4.83,-2.39,26.88,26.88,25.90
8.18,4.89,-2.40,24.29,24.29,23.10
8.29,4.85,-2.39,17.78,17.78,17.36
8.23,4.77,-2.36,15.54,15.54,15.54
8.09,4.71,-2.35,13.93,13.93,13.58
8.05,4.73,-2.35,12.04,12.04,12.04
8.09,4.79,-2.43,9.94,9.66,9.66
8.17,4.85,-2.46,7.56,7.56,7.49
8.16,4.77,-2.43,6.65,6.37,6.37
8.09,4.75,-2.40,5.95,5.81,5.81
8.04,4.71,-2.39,5.60,5.60,5.60
8.10,4.68,-2.46,5.11,5.11,5.11
8.11,4.60,-2.46,4.69,4.48,4.62
8.18,4.64,-2.48,4.34,4.34,4.34
8.28,4.69,-2.49,3.15,3.08,3.08
8.32,4.67,-2.51,2.24,2.10,2.10
8.24,4.57,-2.36,1.26,1.33,1.33
8.25,4.58,-2.37,0.70,0.70,0.77
8.25,4.57,-2.40,0.35,0.35,0.14
8.26,4.60,-2.38,-0.28,-0.28,-0.28
8.33,4.65,-2.35,-0.56,-0.56,-0.56
8.38,4.55,-2.28,-0.42,-0.42,-0.42
8.34,4.47,-2.23,0.07,0.07,0.07
8.31,4.43,-2.31,0.70,0.77,0.77
8.36,4.44,-2.32,1.12,1.19,1.19
8.45,4.51,-2.39,1.40,1.61,1.61
8.37,4.43,-2.32,2.10,2.10,2.10
8.42,4.47,-2.39,2.80,2.80,2.80
8.35,4.47,-2.36,3.22,3.22,3.22
8.32,4.52,-2.40,3.15,3.15,3.15
8.39,4.54,-2.42,2.52,2.52,2.52
8.41,4.57,-2.47,1.82,1.82,1.82
8.43,4.59,-2.45,1.33,1.26,1.26
8.34,4.63,-2.36,1.26,1.05,1.05
8.28,4.58,-2.37,1.05,1.05,1.05
8.29,4.54,-2.38,0.77,0.77,0.84
8.29,4.47,-2.37,0.77,0.77,0.84
8.27,4.44,-2.34,0.98,1.26,1.26
8.24,4.35,-2.32,1.75,1.75,2.10
8.30,4.35,-2.36,2.73,2.73,3.01
8.34,4.31,-2.34,3.71,3.71,3.78
8.39,4.34,-2.36,4.34,4.34,4.41
8.28,4.32,-2.34,5.04,5.04,5.11
8.27,4.31,-2.34,5.95,5.95,5.95
8.26,4.34,-2.37,6.58,6.58,6.58
8.33,4.47,-2.59,5.11,5.11,4.90
8.41,4.37,-2.58,2.80,2.80,2.80
8.42,4.33,-2.58,1.82,1.82,1.68
8.40,4.31,-2.59,1.05,1.05,0.98
8.48,4.30,-2.65,-0.63,-0.63,-0.84
8.43,4.38,-2.65,-2.24,-2.24,-2.38
8.48,4.48,-2.68,-3.43,-3.43,-3.43
8.31,4.50,-2.61,-4.83,-4.83,-4.83
8.13,4.46,-2.57,-5.46,-5.46,-5.74
8.24,4.53,-2.65,-6.65,-6.79,-6.79
8.27,4.56,-2.65,-7.91,-7.91,-7.91
8.09,4.50,-2.55,-8.54,-8.54,-8.54
8.17,4.41,-2.60,-8.75,-8.75,-8.75
8.25,4.36,-2.63,-8.54,-8.47,-8.47
8.26,4.34,-2.65,-8.05,-8.05,-7.91
8.32,4.40,-2.65,-7.42,-7.42,-7.42
8.32,4.45,-2.58,-7.14,-7.07,-7.07
8.26,4.49,-2.54,-7.21,-7.28,-7.28
8.39,4.53,-2.61,-7.91,-8.12,-8.12
8.38,4.50,-2.60,-8.68,-8.82,-8.82
8.28,4.47,-2.53,-9.10,-9.10,-9.10
8.32,4.47,-2.54,-9.10,-9.10,-9.10
8.39,4.44,-2.53,-8.96,-8.89,-8.96
8.37,4.33,-2.50,-8.61,-8.47,-8.33
8.27,4.31,-2.42,-7.70,-7.63,-7.35
8.26,4.31,-2.38,-6.72,-6.58,-6.58
8.34,4.38,-2.44,-5.81,-5.60,-5.60
8.33,4.34,-2.39,-4.13,-4.13,-3.64
8.35,4.26,-2.42,-1.47,-1.47,-1.47
8.47,4.24,-2.48,0.28,0.42,0.42
8.44,4.15,-2.50,5.46,5.46,5.81
8.31,4.17,-2.53,8.12,8.12,8.12
8.23,4.24,-2.55,10.57,10.92,10.92
8.37,4.35,-2.67,12.04,12.18,12.18
8.37,4.37,-2.67,12.81,13.09,13.09
8.31,4.39,-2.59,13.65,13.86,13.93
8.29,4.41,-2.57,14.28,14.35,14.35
8.39,4.43,-2.61,14.21,14.21,14.21
8.41,4.45,-2.64,14.07,14.00,14.00
8.33,4.42,-2.62,14.21,14.35,14.35
8.26,4.44,-2.55,14.56,14.63,14.63
8.13,4.49,-2.53,14.56,14.56,14.35
8.15,4.53,-2.61,13.79,13.51,13.30
8.18,4.58,-2.72,12.39,12.18,12.18
8.16,4.56,-2.71,10.71,10.71,10.64
8.19,4.51,-2.69,10.08,10.08,9.66
8.25,4.52,-2.71,9.03,9.03,8.82
8.22,4.53,-2.76,7.49,7.49,7.21
8.26,4.58,-2.81,6.02,6.02,5.95
8.25,4.60,-2.81,4.62,4.62,4.34
8.23,4.59,-2.81,2.59,2.59,2.59
8.26,4.58,-2.89,1.05,0.91,0.91
8.19,4.66,-2.82,-0.21,-0.21,-0.28
7.99,4.67,-2.75,-1.05,-1.05,-1.12
8.04,4.68,-2.78,-2.10,-2.10,-2.10
8.21,4.65,-2.89,-3.99,-3.99,-4.13
8.15,4.52,-2.90,-5.67,-5.74,-5.74
7.98,4.45,-2.78,-6.51,-6.51,-6.51
8.03,4.48,-2.72,-7.28,-7.35,-7.35
8.27,4.56,-2.83,-8.61,-8.68,-8.68
8.05,4.58,-2.62,-11.34,-11.34,-11.34
8.21,4.60,-2.67,-12.39,-13.09,-13.09
8.25,4.60,-2.67,-14.21,-14.21,-14.21
8.24,4.58,-2.63,-15.68,-15.68,-15.82
8.25,4.51,-2.62,-16.45,-16.45,-16.45
8.29,4.48,-2.62,-16.45,-16.45,-16.45
8.25,4.47,-2.58,-16.31,-16.31,-16.31
8.21,4.50,-2.54,-16.45,-16.45,-16.38
8.20,4.47,-2.57,-16.66,-16.59,-16.66
8.24,4.41,-2.60,-16.73,-16.66,-16.66
8.26,4.39,-2.55,-16.45,-16.45,-16.24
8.33,4.41,-2.54,-16.17,-16.17,-15.96
8.43,4.40,-2.55,-15.96,-15.96,-15.82
8.43,4.34,-2.51,-15.61,-15.61,-15.54
8.34,4.43,-2.48,-14.49,-14.49,-14.42
8.33,4.50,-2.49,-14.42,-14.42,-14.42
8.32,4.56,-2.46,-14.49,-14.49,-14.49
8.28,4.55,-2.46,-14.84,-14.84,-14.84
8.29,4.45,-2.46,-14.70,-14.63,-14.63
8.34,4.33,-2.50,-13.79,-13.79,-13.58
8.35,4.21,-2.49,-12.04,-12.04,-11.41
8.28,4.09,-2.38,-9.17,-9.17,-9.17
8.34,4.13,-2.43,-7.00,-6.79,-6.79
8.49,4.22,-2.48,-5.74,-5.46,-5.11
8.55,4.28,-2.47,-4.34,-4.13,-4.13
8.50,4.36,-2.39,-2.52,-2.31,-2.31
8.42,4.36,-2.33,-1.61,-1.61,-1.40
8.42,4.38,-2.37,-1.19,-1.12,-1.05
8.45,4.36,-2.39,-0.84,-0.84,-0.84
8.46,4.31,-2.40,-0.21,-0.21,-0.21
8.43,4.33,-2.40,0.77,0.91,0.91
8.44,4.34,-2.42,1.40,1.75,1.75
8.37,4.26,-2.37,2.66,2.80,3.29
8.29,4.17,-2.33,4.48,4.83,4.83
8.27,4.11,-2.34,7.28,7.28,7.56
8.35,4.11,-2.32,9.17,9.17,9.38
8.43,4.13,-2.34,10.64,10.64,10.92
8.47,4.15,-2.34,12.46,12.46,12.46
8.47,4.23,-2.38,13.09,13.30,13.30
8.58,4.37,-2.46,13.09,13.02,13.02
8.59,4.43,-2.49,11.83,11.83,11.69
8.53,4.37,-2.45,10.99,10.99,11.06
8.52,4.31,-2.51,10.57,10.57,10.57
8.54,4.26,-2.54,10.57,10.57,10.64
8.57,4.16,-2.54,11.48,11.48,11.55
8.44,4.08,-2.54,12.67,12.67,12.67
8.40,4.04,-2.56,14.28,14.28,14.28
8.44,4.08,-2.59,16.10,16.10,16.10
8.39,4.16,-2.60,17.15,17.15,17.15
8.35,4.23,-2.66,17.92,17.99,17.99
8.31,4.29,-2.63,18.48,18.55,18.55
8.18,4.31,-2.60,18.76,18.83,18.83
8.26,4.32,-2.63,18.69,18.69,18.83
8.31,4.26,-2.67,18.83,18.83,18.69
8.28,4.22,-2.69,18.69,18.62,18.69
8.34,4.27,-2.70,18.62,18.62,18.69
8.33,4.29,-2.70,18.55,18.55,18.41
8.30,4.32,-2.73,18.13,18.13,18.13
8.30,4.32,-2.75,17.22,17.22,17.22
8.31,4.38,-2.75,16.24,15.82,15.82
8.37,4.38,-2.80,14.00,14.00,13.79
8.39,4.39,-2.82,11.76,11.76,11.27
8.39,4.38,-2.83,9.73,9.73,9.52
8.28,4.31,-2.73,8.54,8.54,8.54
8.18,4.33,-2.72,7.56,7.56,7.14
8.21,4.38,-2.79,5.88,5.88,5.88
8.22,4.38,-2.89,3.64,3.64,3.64
8.14,4.38,-2.85,1.61,1.61,1.61
8.12,4.37,-2.76,-0.70,-0.70,-0.70
8.26,4.40,-2.83,-2.31,-2.31,-2.31
8.34,4.42,-2.89,-3.43,-3.71,-3.71
8.38,4.41,-2.86,-5.25,-5.25,-5.25
8.22,4.39,-2.77,-6.02,-6.02,-6.02
8.16,4.41,-2.70,-6.86,-6.86,-6.86
8.25,4.47,-2.73,-7.63,-8.05,-8.05
8.29,4.49,-2.74,-9.03,-9.10,-9.10
8.26,4.40,-2.73,-9.66,-9.94,-9.80
8.33,4.29,-2.73,-9.80,-9.80,-9.73
8.48,4.33,-2.77,-10.50,-10.50,-10.50
8.52,4.31,-2.74,-10.92,-10.99,-10.99
8.40,4.24,-2.71,-10.64,-10.64,-10.50
8.39,4.13,-2.70,-7.00,-7.00,-6.79
8.38,4.25,-2.76,-6.16,-6.16,-6.16
8.27,4.32,-2.72,-5.53,-5.53,-5.53
8.31,4.37,-2.69,-5.25,-5.39,-5.39
8.44,4.44,-2.72,-5.53,-5.53,-5.53
8.45,4.39,-2.68,-5.53,-5.46,-5.46
8.36,4.30,-2.65,-4.76,-4.76,-4.76
8.32,4.21,-2.64,-3.43,-3.43,-3.43
8.20,4.16,-2.63,-2.24,-2.24,-2.24
8.19,4.13,-2.66,-1.61,-1.61,-1.33
8.34,4.19,-2.73,-0.56,-0.56,-0.42
8.34,4.24,-2.71,0.21,0.21,0.14
8.33,4.25,-2.68,0.56,0.56,0.70
8.34,4.42,-2.71,-1.40,-1.40,-1.47
8.20,4.39,-2.64,-1.61,-1.61,-1.61
8.18,4.39,-2.62,-1.61,-1.61,-1.61
8.32,4.37,-2.69,-1.96,-1.96,-1.96
8.34,4.29,-2.72,-2.03,-1.89,-1.89
8.27,4.27,-2.71,-1.75,-1.68,-1.68
8.26,4.34,-2.65,-1.47,-1.47,-1.47
8.31,4.37,-2.61,-1.61,-1.61,-1.61
8.38,4.36,-2.63,-2.52,-2.52,-2.52
8.37,4.36,-2.66,-3.01,-3.22,-3.22
8.20,4.41,-2.58,-3.64,-3.64,-3.64
8.28,4.43,-2.60,-4.27,-4.27,-4.62
8.36,4.35,-2.65,-5.18,-5.18,-5.18
8.32,4.29,-2.67,-5.32,-5.32,-5.32
8.24,4.26,-2.65,-5.25,-5.25,-5.25
8.27,4.33,-2.65,-4.90,-4.90,-4.90
8.28,4.27,-2.61,-4.55,-4.55,-4.48
8.31,4.34,-2.68,-3.78,-3.85,-3.85
8.28,4.35,-2.68,-3.08,-3.08,-3.08
8.25,4.35,-2.64,-2.59,-2.45,-2.45
8.30,4.33,-2.62,-2.10,-1.96,-1.89
8.38,4.35,-2.66,-1.61,-1.61,-1.40
8.49,4.39,-2.68,-0.98,-0.98,-0.91
8.40,4.33,-2.68,-0.21,-0.14,-0.14
8.35,4.31,-2.65,1.19,1.19,1.26
8.35,4.29,-2.64,2.03,2.24,2.38
8.37,4.25,-2.70,3.22,3.22,3.22
8.37,4.24,-2.66,4.41,4.69,4.69
8.32,4.16,-2.63,5.39,5.88,5.88
8.35,4.23,-2.68,6.93,6.93,6.93
8.33,4.35,-2.73,7.63,7.63,7.63
8.17,4.38,-2.68,7.63,7.63,7.49
8.24,4.42,-2.72,6.58,6.58,6.58
8.30,4.47,-2.78,5.60,5.25,5.25
8.34,4.50,-2.79,4.34,4.34,4.13
8.24,4.46,-2.71,3.50,3.50,3.50
8.14,4.39,-2.67,2.94,2.94,2.94
8.28,4.36,-2.77,1.82,1.82,1.68
8.34,4.34,-2.84,0.77,0.77,0.63
8.24,4.35,-2.76,0.28,0.28,0.14
8.16,4.41,-2.68,-0.28,-0.28,-0.28
8.26,4.43,-2.67,-0.91,-0.91,-0.91
8.46,4.42,-2.76,-2.38,-2.38,-2.38
8.39,4.36,-2.69,-3.08,-3.29,-3.29
8.22,4.33,-2.62,-3.64,-3.64,-3.71
8.22,4.45,-2.63,-4.34,-4.34,-4.34
8.38,4.50,-2.70,-6.23,-6.23,-6.23
8.53,4.46,-2.77,-7.21,-7.56,-7.56
8.46,4.32,-2.71,-7.91,-7.91,-7.91
8.26,4.24,-2.63,-7.56,-7.49,-7.35
8.22,4.30,-2.57,-6.79,-6.72,-6.72
8.28,4.32,-2.57,-6.51,-6.51,-6.51
8.29,4.22,-2.64,-5.81,-5.60,-5.60
8.22,4.14,-2.67,-4.97,-4.34,-4.34
8.21,4.17,-2.66,-3.43,-2.87,-2.87
8.18,4.25,-2.65,-1.96,-1.82,-1.47
8.25,4.26,-2.69,-0.84,-0.70,-0.70
8.30,4.15,-2.69,0.70,0.77,0.77
8.32,4.12,-2.66,1.96,1.96,1.96
8.34,4.13,-2.62,3.36,3.36,3.36
8.38,4.23,-2.62,4.55,4.55,4.55
8.55,4.24,-2.67,4.90,4.90,4.90
8.57,4.20,-2.71,4.83,4.76,4.76
8.54,4.13,-2.72,4.83,4.83,4.83
8.49,4.16,-2.70,4.90,4.83,4.90
8.49,4.23,-2.66,4.90,4.90,4.90
8.52,4.25,-2.71,4.55,4.55,4.48
8.45,4.22,-2.69,4.20,4.20,4.13
8.18,4.16,-2.70,5.67,5.88,5.88
8.20,4.22,-2.67,6.86,6.86,6.93
8.24,4.24,-2.71,7.21,7.28,7.42
8.11,4.25,-2.66,7.70,7.70,7.70
8.19,4.25,-2.71,8.19,8.12,8.12
8.21,4.25,-2.72,8.26,8.33,8.33
8.42,4.35,-2.77,7.70,7.70,7.70
8.58,4.35,-2.81,6.72,6.65,6.65
8.54,4.28,-2.77,6.09,6.02,6.02
8.48,4.20,-2.74,5.81,5.81,5.67
8.51,4.17,-2.79,5.60,5.60,5.67
8.61,4.11,-2.84,5.11,5.11,5.11
8.59,4.07,-2.82,5.11,5.11,5.25
8.48,4.09,-2.83,5.60,5.60,5.74
8.36,4.13,-2.79,6.09,6.16,6.37
8.25,4.21,-2.78,6.79,6.79,6.72
8.27,4.24,-2.86,6.93,6.93,6.86
8.33,4.24,-2.88,6.93,6.93,7.07
8.19,4.20,-2.84,7.49,7.49,7.42
8.06,4.14,-2.79,8.75,8.75,8.89
8.16,4.21,-2.85,9.45,9.45,9.45
8.36,4.23,-2.97,9.66,9.66,9.73
8.38,4.19,-2.90,9.94,10.08,10.08
8.32,4.12,-2.87,10.50,10.57,10.57
8.43,4.21,-2.99,10.50,10.57,10.57
8.28,4.17,-2.90,8.19,8.19,8.19
8.15,4.09,-2.90,7.98,7.98,7.98
8.31,4.16,-3.06,7.07,7.07,7.07
8.07,4.23,-2.94,6.30,6.30,6.30
8.22,4.52,-3.00,3.64,3.22,3.22
8.38,4.54,-3.15,0.63,0.63,0.28
8.32,4.44,-3.09,-2.10,-2.59,-2.59
8.25,4.40,-2.94,-7.00,-7.00,-7.42
8.25,4.29,-2.96,-10.71,-10.71,-10.71
8.28,4.26,-2.99,-11.62,-11.69,-11.69
8.24,4.31,-2.96,-12.60,-12.60,-12.81
8.17,4.34,-2.87,-13.37,-13.37,-13.44
8.25,4.21,-2.84,-14.14,-14.14,-14.14
8.22,4.13,-2.76,-13.23,-13.23,-13.23
8.22,4.10,-2.81,-12.53,-12.32,-12.32
8.37,4.12,-2.88,-11.76,-11.76,-11.55
8.31,4.14,-2.77,-8.12,-8.05,-8.05
8.39,4.16,-2.85,-7.42,-7.35,-7.35
8.48,4.15,-2.86,-6.79,-6.72,-6.72
8.31,4.06,-2.81,-5.46,-5.18,-5.18
8.25,4.02,-2.75,-3.15,-3.15,-2.87
8.33,4.00,-2.75,-1.75,-1.40,-1.26
8.43,4.02,-2.80,-0.07,-0.07,-0.07
8.43,4.03,-2.77,2.10,2.10,2.10
8.34,4.07,-2.75,3.29,3.29,3.29
8.43,4.16,-2.79,4.13,4.27,4.27
8.41,4.17,-2.76,4.48,4.48,4.48
8.35,4.17,-2.76,4.48,4.48,4.48
8.42,4.20,-2.80,4.34,4.41,4.27
8.35,4.15,-2.78,4.34,4.34,4.34
8.33,4.21,-2.74,4.48,4.48,4.48
8.29,4.29,-2.68,4.41,4.41,4.41
8.24,4.30,-2.70,3.92,3.85,3.85
8.34,4.27,-2.76,3.50,3.29,3.29
8.34,4.26,-2.78,2.94,3.01,2.80
8.26,4.18,-2.75,2.45,2.45,2.38
8.31,4.11,-2.81,2.17,2.17,2.17
8.37,4.09,-2.87,2.24,2.24,2.24
8.37,4.06,-2.89,2.80,2.80,2.80
8.20,4.06,-2.79,4.20,4.20,4.20
8.19,4.18,-2.77,4.55,4.55,4.55
8.27,4.31,-2.87,4.34,4.34,4.34
8.36,4.37,-2.94,3.22,3.22,3.22
8.48,4.35,-2.95,2.38,2.38,2.38
8.44,4.30,-2.91,2.31,2.31,2.31
8.36,4.20,-2.83,2.73,2.73,2.87
8.28,4.27,-2.96,2.24,1.96,1.96
8.16,4.30,-2.90,1.61,1.61,1.26
8.23,4.34,-2.91,0.77,0.77,0.77
8.28,4.31,-2.93,-0.07,-0.07,-0.07
8.33,4.21,-2.96,-0.56,-0.56,-0.56
8.33,4.19,-2.93,-0.77,-0.77,-0.77
8.26,4.21,-2.92,-0.91,-1.05,-1.05
8.17,4.33,-2.92,-1.54,-1.54,-1.82
8.25,4.52,-3.01,-5.39,-5.39,-5.39
8.29,4.50,-2.97,-7.56,-7.56,-7.56
8.29,4.36,-2.92,-8.61,-8.61,-8.61
8.17,4.31,-2.82,-9.24,-9.31,-9.31
8.38,4.24,-2.91,-10.85,-10.85,-10.92
8.42,4.21,-2.88,-11.20,-11.20,-11.13
8.38,4.23,-2.85,-11.13,-11.06,-10.99
8.29,4.23,-2.77,-10.85,-10.85,-10.85
8.42,4.31,-2.84,-10.99,-10.99,-10.99
8.39,4.21,-2.84,-11.20,-11.27,-11.27
8.26,4.12,-2.78,-10.99,-10.78,-10.78
8.28,4.17,-2.69,-10.15,-10.15,-10.08
8.33,4.25,-2.74,-9.52,-9.52,-9.52
8.42,4.25,-2.76,-9.52,-9.52,-9.52
8.33,4.19,-2.73,-9.45,-9.38,-9.38
8.33,4.21,-2.68,-9.03,-9.03,-9.10
8.52,4.29,-2.69,-8.82,-8.82,-8.82
8.54,4.25,-2.66,-8.61,-8.54,-8.54
8.46,4.20,-2.69,-8.19,-8.12,-8.12
8.37,4.11,-2.64,-7.49,-7.49,-7.49
8.24,4.10,-2.56,-6.58,-6.58,-6.58
8.29,4.21,-2.58,-5.88,-6.02,-6.02
8.49,4.28,-2.65,-5.95,-5.95,-5.95
8.49,4.26,-2.63,-5.81,-5.53,-5.53
8.29,4.13,-2.46,-4.69,-4.55,-4.55
8.26,4.16,-2.49,-3.57,-3.57,-3.57
8.33,4.22,-2.56,-3.22,-3.22,-3.22
8.44,4.31,-2.52,-2.87,-2.80,-2.80
8.44,4.27,-2.53,-2.17,-2.03,-2.03
8.36,4.13,-2.50,-1.19,-0.63,-0.63
8.41,4.20,-2.45,0.28,0.77,0.77
8.45,4.22,-2.52,1.54,1.54,1.61
8.55,4.24,-2.59,2.38,2.38,2.38
8.65,4.21,-2.49,3.01,3.08,3.08
8.72,4.33,-2.40,3.85,3.85,3.85
8.83,4.45,-2.52,4.76,4.76,4.76
8.95,4.41,-2.64,5.39,5.39,5.39
8.91,4.37,-2.57,6.44,6.44,6.44
8.85,4.50,-2.51,7.35,7.35,7.35
8.71,4.59,-2.51,8.33,8.33,8.33
8.68,4.66,-2.31,8.68,8.68,8.68
8.49,4.75,-2.17,8.75,8.68,8.68
8.54,4.75,-2.14,8.40,8.40,8.40
8.27,4.55,-2.01,7.84,7.84,7.84
8.14,4.44,-1.82,7.28,7.28,7.21
8.28,4.39,-1.80,6.37,6.37,6.37
8.45,4.43,-1.72,6.23,6.23,6.23
8.30,4.32,-1.51,7.35,7.42,7.42
8.39,4.20,-1.31,9.59,9.59,9.80
8.60,4.40,-1.28,15.12,15.54,15.54
8.67,4.54,-1.22,16.17,16.17,16.38
8.56,4.56,-1.16,16.24,16.24,16.24
8.37,4.53,-1.16,15.82,15.68,15.68
8.35,4.64,-1.23,14.56,14.56,14.28
8.52,4.78,-1.38,12.46,12.46,12.18
8.62,4.82,-1.44,10.78,10.78,10.29
8.43,4.70,-1.30,7.84,7.84,7.56
8.55,4.79,-1.27,5.81,5.81,5.81
8.81,4.97,-1.30,3.64,3.64,3.64
8.83,4.90,-1.27,1.47,0.84,0.84
8.69,4.77,-1.16,-1.40,-2.38,-2.38
8.83,4.79,-1.19,-5.32,-5.81,-6.23
8.75,4.78,-1.11,-9.17,-9.66,-9.66
8.55,4.96,-0.92,-13.72,-13.72,-14.00
8.31,5.19,-0.79,-16.80,-16.80,-16.87
8.07,5.12,-0.66,-20.58,-20.58,-21.00
8.13,5.21,-0.67,-22.96,-22.96,-23.24
7.69,4.90,-0.55,-25.13,-25.13,-25.13
7.47,4.73,-0.51,-24.99,-24.64,-24.64
7.43,4.73,-0.54,-23.17,-22.68,-22.68
7.30,4.66,-0.37,-20.09,-19.67,-19.67
7.70,4.90,-0.30,-16.73,-16.73,-16.52
8.35,5.16,-0.28,-15.75,-15.47,-15.47
8.71,4.97,-0.29,-14.63,-14.63,-14.56
8.99,4.84,-0.40,-13.79,-13.79,-13.65
9.63,5.18,-0.25,-13.93,-13.93,-13.93
10.12,5.74,-0.22,-16.59,-16.59,-16.59
10.42,6.07,-0.11,-21.28,-23.31,-23.31
10.76,6.48,0.09,-32.62,-32.62,-34.30
10.87,6.81,0.27,-48.09,-48.09,-48.09
10.48,6.69,0.55,-63.70,-65.38,-65.38
10.13,6.85,0.96,-73.78,-75.25,-78.89
9.94,7.06,1.32,-87.22,-87.22,-88.90
9.69,6.95,1.61,-102.69,-102.69,-104.09
9.40,6.88,2.07,-110.60,-110.60,-113.61
8.81,6.57,2.67,-117.60,-117.60,-118.16
8.18,5.85,3.32,-121.38,-121.38,-121.45
8.01,5.90,3.98,-121.31,-121.31,-121.03
8.10,5.70,4.48,-119.28,-119.28,-118.93
7.90,5.25,5.17,-114.52,-114.52,-114.52
8.26,5.18,5.46,-111.23,-111.23,-111.23
8.64,5.12,5.47,-106.05,-106.05,-106.05
8.86,4.93,5.81,-102.34,-102.34,-102.34
9.31,4.87,6.08,-99.47,-99.47,-99.47
9.29,4.62,6.17,-95.34,-94.85,-94.85
9.03,4.32,6.49,-92.19,-90.51,-90.51
9.17,4.31,7.02,-87.78,-85.96,-85.96
8.55,4.10,7.31,-81.13,-81.13,-81.13
8.08,3.95,7.89,-74.27,-73.43,-73.43
7.75,3.83,8.08,-69.30,-66.71,-66.71
6.81,3.62,8.24,-62.44,-61.67,-59.85
6.26,3.71,8.59,-55.51,-55.51,-55.51
6.06,3.48,8.52,-51.03,-51.03,-49.84
5.47,3.42,8.55,-45.99,-45.99,-45.99
5.37,3.10,8.80,-39.62,-39.62,-39.62
4.77,2.88,8.77,-35.28,-33.74,-33.74
4.19,2.69,8.58,-27.79,-27.79,-27.79
3.74,2.61,8.67,-21.35,-21.35,-21.35
3.30,2.46,8.69,-15.96,-14.35,-14.35
1.95,2.11,8.26,-2.38,-1.47,-1.47
1.23,1.73,8.02,4.90,4.90,8.05
0.54,1.70,7.96,16.45,16.45,16.45
-0.04,1.63,7.89,25.48,25.48,25.48
-0.94,1.43,7.61,35.91,35.91,35.91
-2.12,1.19,7.43,43.05,45.64,45.64
-2.51,1.42,7.38,52.85,52.85,52.85
-2.62,1.84,7.21,59.78,59.78,59.78
-2.75,2.12,6.91,61.74,61.74,61.74
-4.04,2.03,6.84,61.81,61.81,61.81
-4.79,2.22,7.05,61.81,61.74,61.74
-4.36,2.92,7.05,59.85,59.85,58.59
-4.38,3.30,6.95,52.92,52.92,50.75
-4.54,3.35,6.93,45.71,44.80,42.98
-4.90,3.29,6.71,39.27,38.64,38.64
-5.03,3.43,6.71,34.16,33.60,32.27
-4.69,3.77,6.52,26.39,25.76,25.76
-4.99,3.56,6.20,20.51,20.51,19.88
-6.59,2.98,6.15,17.08,17.08,16.94
-7.04,2.97,6.03,17.64,17.64,17.64
-6.62,3.09,5.93,18.41,18.41,18.41
-6.08,2.95,5.68,18.27,18.27,18.20
-6.30,2.80,5.50,17.71,17.71,17.71
-7.02,2.56,5.24,17.43,17.43,17.43
-6.73,2.70,5.08,18.13,18.13,18.13
-6.50,2.92,4.59,17.43,17.43,17.43
-6.90,2.73,4.45,17.08,17.08,17.08
-7.43,2.50,4.50,19.11,19.11,19.11
-7.59,2.67,4.25,21.49,21.49,21.49
-7.60,2.77,4.10,21.56,21.56,21.56
-7.62,2.71,3.90,21.84,21.84,21.84
-7.71,2.56,3.65,23.31,23.52,23.52
-7.88,2.80,3.67,23.52,23.52,23.52
-8.15,2.76,3.72,21.84,21.84,21.21
-7.99,2.51,3.19,21.28,21.28,21.28
-7.89,2.57,2.99,20.86,20.86,20.86
-8.48,2.68,3.16,18.34,18.34,18.34
-8.55,2.66,3.09,15.05,14.70,14.70
-8.22,2.72,2.89,14.00,13.72,13.30
-8.37,2.76,3.00,12.25,12.04,12.04
-8.33,2.89,3.02,9.66,9.66,9.66
-8.00,2.85,2.83,7.21,7.07,7.07
-7.79,2.71,2.79,6.44,6.51,6.51
-7.68,2.82,2.67,7.07,7.07,7.28
-7.39,2.95,2.61,7.00,7.00,6.86
-7.38,2.94,2.49,5.53,5.53,5.46
-7.39,2.76,2.26,6.30,6.30,6.30
-7.70,2.73,2.29,8.19,8.19,8.19
-8.33,2.76,2.37,9.59,9.59,9.59
-9.02,2.76,2.16,12.95,13.79,13.79
-9.34,2.79,2.12,15.05,15.19,15.19
-11.02,2.78,2.18,17.29,17.29,17.57
-9.93,2.94,2.12,18.55,18.55,18.76
-10.09,3.05,2.14,18.62,18.62,18.62
-10.28,3.00,2.25,16.87,16.87,16.94
-10.09,3.04,2.29,16.45,16.45,16.38
-9.77,3.05,2.39,14.98,14.98,14.98
-9.70,3.11,2.52,11.76,11.34,11.34
-9.40,3.12,2.54,9.38,9.31,9.31
-9.02,3.06,2.63,9.03,8.82,8.82
-9.00,2.92,2.73,8.68,8.68,8.68
-8.83,3.02,2.71,9.66,9.66,9.73
-8.54,3.12,2.87,9.38,9.38,9.38
-8.66,2.89,3.10,8.26,7.98,7.98
-8.40,2.53,3.11,8.05,8.05,8.40
-8.21,2.58,2.96,8.68,8.68,8.68
-8.55,2.51,3.12,7.91,7.91,8.05
-8.45,2.46,2.98,8.54,8.47,8.47
-8.72,2.44,3.01,7.56,7.56,7.56
-8.66,2.15,2.91,6.86,6.86,7.00
-8.65,2.07,2.78,7.21,7.35,7.28
-8.97,2.07,2.81,7.84,7.84,7.84
-9.38,2.09,2.46,10.92,10.92,11.20
-9.44,2.08,2.35,13.09,13.09,13.37
-9.62,2.10,2.33,15.75,15.75,15.75
-9.65,1.95,2.36,17.71,35.63,17.99
-9.47,1.88,2.22,20.23,20.23,20.23
-9.51,1.93,2.13,21.70,21.70,21.70
-9.44,2.20,1.95,22.75,22.96,22.96
-9.58,2.69,1.87,23.24,23.24,23.03
-9.64,3.03,1.84,21.56,21.56,21.56
-9.66,3.29,1.70,18.97,18.97,18.97
-9.70,3.54,1.59,15.75,15.75,15.75
-9.87,3.70,1.58,12.81,12.25,12.25
-9.89,3.90,1.52,6.93,6.16,6.16
-9.67,3.95,1.44,-1.75,-1.75,-2.38
-9.69,3.85,1.47,-7.21,-7.21,-8.05
-9.63,3.72,1.47,-11.55,-12.88,-13.79
-9.31,3.35,1.71,-23.17,-23.17,-23.80
-9.04,2.96,1.73,-27.58,-27.58,-27.93
-8.93,2.51,2.06,-28.35,-28.35,-28.07
-8.84,2.42,2.19,-26.60,-26.60,-26.60
-8.93,2.33,2.33,-24.71,-23.52,-23.52
-8.72,2.31,2.43,-20.93,-19.04,-19.04
-8.73,2.41,2.62,-15.26,-14.63,-14.63
-8.95,2.28,2.84,-9.38,-9.38,-8.75
-9.01,2.25,2.96,-5.18,-3.85,-3.08
-9.16,2.17,3.16,0.35,0.35,2.24
-9.00,2.13,3.18,6.30,6.30,6.30
-8.81,2.31,3.06,11.27,11.27,11.27
-8.63,2.55,3.03,13.58,13.58,13.58
-8.60,2.67,3.00,16.10,16.31,16.31
-8.87,2.56,3.17,18.48,18.69,18.69
-8.92,2.54,3.15,19.88,20.02,20.02
-8.86,2.49,3.06,21.14,21.14,21.14
-8.87,2.53,2.93,21.49,21.49,21.49
-9.01,2.57,2.89,21.70,21.77,21.77
-8.89,2.90,2.66,21.42,21.35,21.35
-9.02,2.99,2.46,19.32,19.32,18.97
-9.06,3.13,2.31,16.80,16.80,16.66
-9.33,3.06,2.14,14.35,14.35,14.00
-9.29,3.18,2.01,11.34,11.34,11.34
-9.52,3.19,1.99,7.21,6.86,6.86
-9.48,3.36,1.88,3.01,2.38,2.38
-9.35,3.38,1.81,-2.31,-2.87,-2.87
-9.37,3.12,1.94,-6.16,-6.51,-6.51
-9.27,2.95,1.99,-8.12,-8.26,-8.26
-9.27,2.94,2.05,-10.71,-10.71,-10.99
-9.27,2.93,2.14,-11.97,-11.97,-12.53
-9.34,2.94,2.23,-13.23,-13.23,-13.37
-9.45,2.96,2.31,-13.86,-13.86,-13.86
-9.47,2.81,2.36,-13.09,-13.09,-13.09
-9.40,2.69,2.39,-11.62,-11.62,-11.62
-9.16,2.58,2.43,-9.94,-9.31,-9.31
-9.08,2.61,2.48,-7.07,-6.79,-6.79
-9.10,2.56,2.52,-3.85,-3.85,-3.36
-8.96,2.57,2.52,-0.77,0.14,0.77
-8.88,2.69,2.56,3.29,3.29,4.34
-8.89,2.79,2.55,6.51,6.51,6.51
-8.89,2.83,2.58,9.24,9.24,9.24
-8.71,2.95,2.49,9.87,9.73,9.73
-8.58,2.93,2.35,9.38,9.38,9.31
-8.71,2.87,2.39,9.24,9.24,9.24
-8.97,2.87,2.38,8.19,8.19,8.19
-9.11,2.90,2.33,5.46,5.25,5.25
-9.10,2.86,2.29,2.94,2.80,2.80
-9.16,2.79,2.21,0.98,0.98,0.77
-9.30,2.74,2.23,-1.05,-1.05,-1.19
-9.44,2.74,2.26,-2.31,-2.31,-2.31
-9.51,2.78,2.24,-3.92,-3.92,-3.92
-9.49,2.69,2.23,-5.95,-5.95,-5.95
-9.35,2.68,2.26,-6.23,-6.23,-6.23
-9.09,2.86,2.29,-5.18,-5.18,-5.18
-9.05,2.93,2.32,-4.76,-4.55,-4.55
-8.91,2.99,2.35,-3.71,-3.15,-3.15
-8.85,3.03,2.34,-2.38,-2.38,-2.38
-8.92,3.02,2.29,-1.61,-1.61,-1.61
-9.18,2.93,2.35,0.07,0.56,0.56
-9.42,2.97,2.34,1.47,1.75,1.75
-9.33,2.97,2.28,1.82,1.82,1.82
-9.29,2.91,2.27,2.17,2.24,2.24
-9.26,2.90,2.30,2.80,2.80,2.80
-9.23,2.88,2.29,2.17,2.17,2.17
-8.98,2.93,2.33,1.40,1.26,1.26
-8.84,3.02,2.33,0.49,0.49,0.42
-8.75,3.06,2.32,-0.98,-0.98,-1.12
-8.82,2.96,2.37,-1.89,-1.89,-1.96
-8.85,2.92,2.37,-2.03,-2.03,-1.96
-8.92,2.95,2.36,-1.75,-1.75,-1.75
-9.05,2.88,2.42,-1.89,-1.89,-1.89
-9.11,2.81,2.41,-1.19,-1.19,-1.19
-9.27,2.73,2.41,-0.28,-0.21,-0.21
-9.39,2.71,2.41,0.77,0.77,0.84
-9.32,2.78,2.43,1.33,1.33,1.33
-9.11,2.88,2.37,1.19,1.19,1.12
-8.93,2.81,2.34,1.12,1.19,1.19
-8.96,2.77,2.34,1.89,1.89,2.24
-8.95,2.90,2.32,2.52,2.52,2.52
-8.86,2.96,2.17,1.75,1.75,1.75
-9.05,2.93,2.13,2.38,2.38,2.38
-9.27,2.96,2.16,2.31,2.31,2.31
-9.27,2.97,2.10,1.12,1.05,1.05
-9.24,2.92,2.08,1.33,1.33,1.33
-9.39,2.93,2.16,1.68,1.54,1.54
-9.31,3.03,2.18,1.12,1.19,1.19
-9.14,3.14,2.17,0.56,0.28,0.28
-9.02,3.15,2.15,-0.42,-0.42,-0.56
-8.92,3.06,2.16,-0.63,-0.63,-0.56
-8.89,3.09,2.19,-0.07,-0.07,-0.07
-8.96,3.16,2.27,-0.21,-0.21,-0.35
-9.01,3.16,2.23,-0.63,-0.63,-0.49
-9.13,3.12,2.27,-0.14,-0.14,-0.14
-9.20,3.04,2.30,0.70,0.70,0.70
-9.25,3.00,2.29,0.84,0.84,0.77
-9.10,3.03,2.23,0.56,0.77,0.77
-9.01,3.00,2.28,0.14,0.07,0.07
-9.00,3.02,2.28,-0.07,-0.14,-0.14
-9.02,2.99,2.32,-0.42,-0.49,-0.49
-8.93,2.99,2.35,-0.91,-0.91,-0.91
-8.87,3.02,2.30,-1.68,-1.68,-1.68
-8.94,3.00,2.29,-1.19,-1.19,-1.19
-9.06,2.93,2.34,-0.70,-0.56,-0.56
-9.07,2.94,2.35,-0.21,-0.21,-0.21
-9.11,2.90,2.35,0.63,0.63,0.63
-9.13,2.91,2.36,2.03,2.03,2.03
-9.08,2.90,2.28,2.24,2.24,2.24
-9.14,2.84,2.34,2.73,2.73,2.73
-9.16,2.86,2.33,3.29,3.29,3.29
-8.99,3.05,2.29,2.38,2.38,2.31
-9.02,2.97,2.30,2.87,2.87,2.87
-9.13,2.93,2.25,3.15,3.15,3.15
-9.14,3.00,2.21,3.22,3.22,3.22
-9.04,3.04,2.18,2.80,2.80,2.59
-8.99,3.10,2.13,1.96,1.96,1.96
-8.97,2.98,2.12,1.54,1.54,1.54
-9.02,2.89,2.14,1.61,1.75,1.75
-9.14,2.90,2.15,1.61,1.61,1.61
-9.16,2.88,2.11,1.33,1.33,1.33
-9.15,2.85,2.09,1.19,1.19,1.19
-9.15,2.85,2.10,1.12,1.12,1.12
-9.36,2.75,2.10,1.12,1.12,1.19
-9.34,2.78,2.07,1.33,1.47,1.47
-9.34,2.86,2.08,1.33,1.26,1.26
-9.29,2.81,2.08,0.77,0.77,0.77
-9.06,2.72,2.03,0.70,0.70,0.70
-8.96,2.68,2.01,0.70,0.70,0.70
-8.77,2.60,1.89,-0.56,-0.77,-0.77
-8.46,2.51,1.91,-1.40,-1.40,-1.40
-8.65,2.57,1.94,-1.75,-1.75,-1.75
-9.23,2.50,1.93,-2.24,-2.24,-2.24
-9.86,2.34,1.87,-3.36,-3.43,-3.43
-10.40,2.25,1.71,-3.78,-3.64,-3.64
-10.83,1.90,1.69,-2.66,-2.52,-2.52
-11.49,1.65,1.90,-1.40,-0.56,-0.56
-12.05,1.72,1.95,0.35,0.35,0.35
-12.12,1.94,1.81,-0.35,-0.56,-0.56
-12.09,2.25,1.90,-3.15,-3.64,-3.64
-11.79,2.41,1.56,-7.14,-7.63,-7.63
-11.69,2.28,1.47,-12.04,-12.04,-12.39
-11.14,2.23,1.50,-13.44,-13.72,-13.86
-11.17,2.11,1.56,-14.42,-14.42,-14.63
-11.66,2.01,1.90,-15.40,-15.40,-15.47
-11.56,2.23,2.07,-15.82,-15.82,-15.82
-11.49,2.23,1.82,-16.87,-16.87,-16.87
-12.16,1.94,2.20,-15.61,-15.61,-14.70
-11.81,1.88,2.10,-10.29,-10.29,-10.29
-12.10,1.85,2.23,-6.23,-5.81,-5.81
-11.76,1.92,2.68,-4.83,-4.76,-4.76
-10.78,2.01,2.53,-3.78,-3.78,-3.50
-10.85,1.56,2.66,-1.89,-1.26,-0.84
-10.71,1.31,2.78,1.19,1.19,2.73
-9.85,1.10,3.05,9.10,9.10,9.59
-9.36,0.90,2.62,15.33,15.33,16.38
-8.11,1.11,2.35,23.73,23.73,24.92
-7.62,1.31,2.75,33.32,33.32,33.32
-5.47,2.49,1.99,57.54,57.54,58.03
-4.99,3.08,1.45,67.27,67.27,67.27
-5.59,4.04,1.36,75.60,78.19,78.19
-6.12,4.94,1.42,83.23,83.30,83.30
-5.51,5.68,0.81,83.65,83.65,84.00
-5.70,6.52,0.75,83.86,83.86,83.37
-5.77,6.40,0.88,73.99,73.99,73.99
-5.79,6.61,0.83,66.01,66.01,66.01
-6.63,6.57,1.23,52.15,52.15,52.15
-6.08,6.56,1.07,43.54,41.37,41.37
-5.74,7.24,0.46,35.21,35.21,32.83
-6.18,7.44,0.98,22.19,20.51,20.51
-5.97,7.13,1.51,10.99,10.15,10.15
-5.19,8.02,1.34,8.19,7.98,7.98
-5.22,8.38,1.33,2.52,2.52,2.52
-4.67,8.45,0.93,-6.37,-10.29,-10.29
-4.49,8.18,1.08,-18.97,-18.97,-18.97
-5.07,7.52,1.29,-28.49,-28.49,-28.49
-4.54,7.30,1.15,-41.44,-41.44,-41.44
-4.69,7.02,1.29,-51.45,-51.45,-51.45
-5.14,6.35,1.31,-62.16,-63.14,-63.14
-5.88,5.25,1.67,-66.85,-67.13,-67.13
-6.88,4.83,1.69,-65.59,-65.59,-65.10
-5.82,4.91,1.33,-63.07,-63.07,-62.72
-7.12,3.80,2.29,-60.34,-59.43,-59.43
-7.29,3.39,2.51,-49.28,-49.28,-49.28
-6.10,4.10,1.83,-38.85,-38.85,-38.85
-6.82,4.04,2.75,-33.88,-33.88,-33.88
-7.03,3.55,3.05,-27.72,-27.72,-27.72
-7.42,3.58,3.02,-15.05,-13.79,-13.79
-7.21,4.38,2.76,-7.63,-5.11,-5.11
-7.98,4.23,3.96,-1.82,-1.82,-1.82
-7.95,4.06,3.97,1.26,1.75,1.75
-7.06,4.90,3.44,5.04,5.32,5.32
-7.07,5.25,3.85,4.34,4.13,4.13
-8.20,5.38,4.11,0.98,0.98,0.49
-7.75,5.51,3.75,-8.33,-8.33,-8.33
-7.19,5.32,3.32,-16.45,-16.45,-16.45
-8.67,5.20,3.88,-21.70,-23.52,-23.52
-10.20,4.45,4.63,-29.05,-29.05,-30.80
-9.23,3.40,4.35,-33.11,-33.11,-33.11
-7.75,3.29,2.97,-30.31,-29.75,-29.75
-7.43,3.45,3.10,-26.88,-25.06,-25.06
-8.74,3.30,3.79,-21.63,-21.63,-21.63
-8.76,3.34,3.22,-14.91,-14.91,-14.91
-8.87,3.59,2.79,-10.78,-10.78,-10.78
-10.12,3.10,3.57,-9.87,-9.87,-9.87
-9.39,2.99,3.33,-6.58,-6.58,-6.58
-8.61,3.23,2.69,-5.74,-5.95,-5.95
-9.55,3.22,2.90,-8.54,-8.96,-8.96
-9.86,2.42,3.28,-12.39,-12.39,-12.60
-9.93,1.96,3.19,-12.95,-13.23,-13.23
-10.63,1.86,3.10,-13.23,-13.37,-13.37
-11.20,2.02,2.90,-14.84,-14.84,-15.82
-11.59,2.36,2.77,-18.90,-18.90,-18.90
-11.98,2.45,2.94,-19.04,-19.04,-19.04
-12.29,2.71,3.19,-20.79,-22.19,-22.19
-12.41,3.04,3.33,-28.84,-28.84,-28.84
-12.49,3.23,3.21,-53.27,-36.61,-36.61
-12.71,3.78,3.42,-45.99,-45.99,-47.81
-13.54,3.59,3.80,-62.02,-62.02,-63.00
-13.12,3.57,3.73,-67.48,-67.48,-69.86
-12.94,3.62,4.22,-74.62,-74.62,-75.74
-12.10,2.31,4.16,-80.85,-80.85,-80.15
-11.14,2.34,4.27,-75.11,-75.11,-74.83
-10.60,1.94,4.21,-72.31,-72.31,-72.31
-10.71,1.69,3.90,-65.87,-64.75,-64.75
-11.80,1.53,4.35,-57.47,-56.70,-55.16
-12.24,1.52,4.34,-51.52,-51.52,-51.24
-12.14,1.11,4.04,-44.10,-44.10,-44.10
-11.62,0.71,4.35,-36.19,-33.53,-33.53
-10.07,0.72,3.97,-24.15,-22.75,-22.75
-9.75,0.85,3.67,-10.50,-10.50,-9.03
-9.84,0.63,4.24,-1.54,1.19,2.45
-9.55,1.17,3.66,9.52,9.52,9.52
-9.44,1.68,3.40,14.49,14.84,14.84
-9.07,1.25,2.68,22.75,22.75,23.24
-10.02,1.36,3.13,24.78,24.78,24.78
-9.77,1.26,3.21,22.96,22.96,22.96
-8.83,1.56,3.11,22.12,22.12,22.12
-8.47,1.68,3.60,20.86,20.23,20.23
-7.65,2.16,3.86,17.85,17.85,17.36
-6.21,3.09,3.67,17.08,17.08,17.08
-6.00,3.50,3.98,16.38,16.38,16.38
-4.97,4.19,3.64,13.93,13.93,13.93
-3.77,4.42,3.71,13.58,13.86,13.86
-3.62,3.56,4.00,17.85,17.85,18.55
-2.53,4.02,4.95,25.06,25.06,25.90
-1.77,4.25,5.47,31.36,31.36,32.06
-2.56,3.62,5.23,36.33,36.33,36.33
-1.96,3.78,5.17,35.91,35.91,35.91
-2.04,4.10,5.09,35.28,35.28,34.51
-3.73,3.45,5.01,31.57,31.57,31.57
-3.31,3.65,4.33,26.67,26.67,26.67
-3.38,3.38,4.22,21.77,21.77,21.77
-5.09,2.94,3.78,16.38,16.38,16.38
-3.49,2.81,3.42,14.28,13.72,13.72
-3.36,3.13,3.53,10.64,10.64,9.03
-3.84,2.86,3.56,-0.77,-0.77,-0.77
-2.51,2.78,2.77,-10.08,-10.50,-10.50
-4.38,2.67,2.94,-12.11,-12.18,-12.18
-5.92,2.42,3.01,-12.04,-11.97,-11.76
-5.58,2.41,2.67,-11.55,-11.55,-12.25
-4.69,3.33,2.09,-14.84,-14.84,-15.33
-6.82,3.78,2.45,-19.53,-19.53,-19.53
-8.80,2.84,2.78,-27.44,-27.44,-27.44
-7.89,2.81,2.34,-27.93,-27.86,-27.86
-9.15,3.45,2.40,-27.58,-27.58,-27.72
-10.61,3.98,2.25,-32.69,-33.88,-33.88
-9.37,3.47,1.74,-41.23,-42.42,-42.91
-9.24,3.56,2.10,-43.47,-43.47,-42.84
-11.36,3.73,3.14,-41.51,-41.51,-41.51
-11.43,2.89,2.58,-43.68,-43.68,-43.68
-10.77,2.44,2.36,-39.06,-39.06,-37.87
-10.70,2.30,2.79,-27.58,-25.76,-25.76
-12.50,2.21,3.93,-10.43,-8.89,-8.89
-11.83,2.58,3.96,-0.49,-0.49,-0.49
-10.96,3.22,3.57,9.52,9.52,9.52
-11.25,3.13,4.09,12.04,12.39,12.39
-10.48,2.30,4.80,14.70,14.70,15.96
-9.67,2.28,4.71,20.79,20.79,21.98
-9.37,2.86,4.25,23.52,23.52,23.52
-9.25,3.00,4.49,17.22,17.22,17.22
-8.66,2.60,4.62,15.54,15.54,16.38
-8.23,2.65,4.50,20.86,20.86,22.40
-9.46,3.13,4.59,24.29,24.29,24.29
-10.66,3.07,4.33,18.27,18.27,18.27
-10.08,2.55,3.78,14.91,15.05,15.05
-11.20,2.71,4.05,18.48,18.62,18.62
-13.67,2.68,4.31,16.31,16.31,15.47
-13.53,2.44,3.77,9.94,9.94,9.94
-14.15,2.23,4.13,11.20,11.20,11.20
-14.42,2.22,4.77,11.41,11.41,11.41
-13.54,3.20,4.69,6.23,6.23,6.23
-12.13,3.51,4.71,-0.63,-0.63,-0.63
-11.03,3.37,4.83,-7.35,-8.26,-8.26
-11.01,2.89,4.50,-11.97,-11.97,-12.04
-12.16,2.55,4.50,-10.08,-10.08,-10.08
-13.49,2.00,4.32,-7.77,-7.77,-7.77
-13.93,1.45,4.04,-2.73,-1.54,-1.54
-13.78,1.05,4.21,10.85,10.85,12.11
-12.68,1.23,4.01,17.64,17.64,20.51
-11.76,1.39,3.28,25.48,25.48,26.67
-11.53,1.37,3.26,36.68,36.68,37.73
-9.94,1.86,2.66,44.87,44.87,45.64
-8.81,2.30,2.10,48.86,48.86,48.93
-9.12,2.12,2.34,49.91,49.91,50.12
-9.11,1.98,1.45,53.06,53.06,53.06
-9.24,2.18,1.06,57.40,58.10,58.10
-9.50,2.15,1.17,61.25,61.25,61.53
-8.85,2.45,0.56,62.51,62.51,63.07
-8.72,2.77,-0.14,63.28,63.28,63.28
-9.13,2.43,0.08,62.86,62.86,62.86
-8.54,2.83,-0.56,61.11,61.11,61.11
-8.76,2.58,0.00,57.33,56.91,56.91
-8.53,2.35,-0.08,36.19,53.27,53.27
-8.01,2.79,-0.56,48.23,48.23,47.53
-8.62,1.23,0.19,39.48,39.48,38.50
-8.34,1.79,-0.04,34.72,34.72,34.16
-8.62,1.82,-0.30,29.54,29.54,29.54
-9.37,1.23,0.25,23.94,23.94,23.94
-8.78,0.55,-0.35,19.25,18.97,18.97
-8.97,-0.01,-0.74,18.20,17.92,17.92
-8.90,-0.55,-0.07,18.13,18.06,18.34
-8.89,-0.73,-0.19,18.41,17.64,17.64
-8.10,-1.17,-0.74,14.91,14.91,14.91
-6.86,-1.50,-0.34,15.89,15.89,15.89
-7.14,-1.73,-0.67,16.45,16.45,16.45
-7.15,-1.82,-0.62,14.70,14.70,14.28
-6.62,-1.77,-0.34,14.77,14.77,14.77
-7.07,-2.05,-0.54,15.61,15.75,15.75
-6.34,-1.82,-0.45,20.16,20.16,20.86
-6.14,-1.81,-0.95,22.75,22.75,22.40
-6.31,-1.61,-1.50,20.09,19.60,19.60
-5.39,-0.94,-0.34,18.27,18.27,18.34
-5.62,-0.65,-0.80,15.96,15.96,14.98
-4.84,-0.51,-1.28,9.45,6.72,5.39
-4.08,-0.27,-0.90,-2.38,-2.38,-2.38
-6.75,-0.51,-1.22,-51.66,-51.66,-52.57
-8.82,-1.00,-1.05,-61.11,-61.11,-61.11
-7.63,-0.98,-0.37,-56.42,-56.42,-55.51
-9.26,-0.97,-0.52,-52.57,-52.57,-52.78
-8.81,-1.18,-0.49,-56.00,-56.00,-56.00
-6.98,-1.23,-0.31,-52.01,-52.01,-52.01
-8.55,-0.38,-0.75,-48.86,-48.86,-48.86
-9.67,-0.63,-0.66,-54.74,-54.74,-54.74
-11.62,-0.77,-0.87,-34.16,-33.53,-33.53
-12.74,-1.08,-0.17,-30.24,-29.54,-29.54
-12.53,-0.83,0.35,-22.40,-22.40,-22.40
-12.11,0.34,-1.23,-18.20,-18.20,-18.20
-12.59,0.60,-0.46,-27.44,-27.44,-27.44
-11.35,0.37,-0.29,-35.84,-35.84,-35.84
-12.06,0.45,-1.01,-38.92,-38.99,-38.99
-12.84,1.27,-0.54,-42.28,-42.28,-43.47
-12.54,0.91,-0.18,-56.00,-56.00,-56.00
-13.30,0.03,-0.07,-61.60,-61.60,-61.60
-12.54,2.03,-0.89,-58.73,-58.73,-59.01
-12.98,1.88,-0.16,-62.16,-62.16,-62.65
-12.92,1.01,0.17,-64.05,-64.05,-63.49
-12.68,1.05,0.65,-57.68,-57.68,-57.68
-12.70,1.01,1.25,-55.02,-55.02,-56.28
-11.29,0.45,0.80,-62.02,-62.02,-62.02
-11.93,0.11,1.23,-57.05,-55.65,-55.65
-11.61,0.59,1.75,-46.62,-46.62,-46.62
-11.75,0.89,1.40,-48.44,-48.44,-48.44
-12.96,0.73,2.04,-46.20,-45.22,-45.22
-13.81,0.35,2.68,-39.20,-38.29,-38.29
-14.07,0.39,2.66,-37.52,-37.52,-38.08
-13.46,0.42,2.83,-39.48,-39.48,-39.06
-13.57,0.20,3.37,-29.47,-29.47,-28.14
-13.47,0.29,3.81,-21.49,-21.49,-20.72
-11.59,0.30,3.59,-17.71,-17.71,-16.94
-10.19,-0.10,3.43,-11.83,-9.31,-9.31
-10.56,0.09,3.63,-3.01,-3.01,-1.82
-10.33,0.84,3.69,-0.91,-0.91,-0.91
-9.62,0.52,3.35,2.52,2.52,2.52
-9.63,-0.24,3.09,11.20,14.84,14.84
-9.82,0.23,3.91,26.60,26.60,26.60
-9.04,0.57,4.31,29.33,30.03,30.03
-7.22,0.45,3.22,34.37,34.37,37.17
-6.15,0.93,3.26,51.73,51.73,51.73
-5.78,2.02,4.40,60.20,60.90,60.90
-5.45,2.59,4.00,61.74,61.74,62.23
-5.27,2.91,3.99,73.15,73.15,75.25
-4.40,3.43,4.75,83.86,85.82,86.73
-2.82,4.45,5.02,89.53,89.53,91.77
-1.81,5.49,4.35,101.43,101.43,102.83
-2.68,5.45,4.55,111.86,111.86,112.63
-0.97,7.60,4.78,121.73,121.73,121.73
-1.67,7.82,4.16,122.22,122.22,122.22
0.22,8.51,3.66,111.93,111.93,111.93
0.76,9.34,3.46,104.79,102.55,102.55
0.17,8.61,4.05,96.53,96.53,94.15
2.04,10.01,4.77,82.32,82.32,82.32
2.06,12.07,5.29,65.10,61.67,61.67
1.45,12.24,5.06,25.13,25.13,21.00
2.71,12.16,4.53,1.05,-6.65,-10.22
0.91,11.65,4.46,-31.78,-31.78,-31.78
-0.16,11.76,4.71,-52.92,-55.23,-55.23
-1.92,11.07,5.47,-66.50,-70.49,-70.49
-2.90,10.07,5.43,-80.64,-81.62,-81.62
-1.98,9.93,6.03,-89.46,-90.93,-90.93
-1.54,9.26,6.18,-100.87,-100.87,-101.43
-1.53,7.44,6.06,-98.91,-98.91,-98.91
-0.70,6.91,6.07,-81.83,-81.83,-81.83
-0.56,6.97,5.91,-72.38,-72.38,-72.38
-2.55,5.78,6.59,-64.96,-64.96,-64.96
-2.95,5.86,5.83,-56.56,-55.93,-55.93
-3.08,5.92,5.71,-54.25,-54.18,-54.18
-4.69,5.86,6.03,-58.87,-58.87,-59.85
-6.14,5.17,5.91,-65.03,-66.64,-67.20
-5.38,4.72,5.21,-69.93,-69.93,-69.93
-4.74,4.43,5.84,-74.97,-75.81,-75.81
-5.31,3.83,5.50,-80.15,-80.78,-80.78
-3.85,3.29,5.27,-81.34,-81.06,-81.06
-5.76,2.20,5.46,-69.30,-67.48,-67.48
-6.51,2.28,5.56,-63.00,-63.00,-63.00
-7.39,1.85,6.46,-57.89,-57.89,-57.89
-7.42,0.80,6.10,-48.51,-48.51,-48.51
-6.83,0.79,5.97,-31.64,-31.64,-31.64
-8.16,1.25,6.53,-23.66,-21.63,-21.63
-8.96,1.23,7.11,-15.19,-15.19,-12.81
-7.69,1.76,7.03,-2.17,-2.17,-2.17
-7.28,2.22,7.37,1.68,1.68,1.68
-7.16,2.27,7.41,2.10,2.10,2.10
-6.77,2.35,7.38,3.71,3.71,3.71
-7.56,2.52,7.76,3.01,3.01,3.01
-9.06,2.27,7.91,0.42,-0.77,-0.77
-8.99,2.04,7.56,-3.15,-3.15,-3.15
-8.69,1.61,6.73,-4.20,-4.20,-4.20
-8.94,1.39,6.39,-5.39,-5.39,-5.39
-9.11,1.55,6.15,-8.82,-8.82,-8.82
-10.02,1.49,5.98,-16.17,-16.73,-16.73
-10.75,1.16,5.62,-18.48,-18.27,-18.27
-10.38,2.14,4.91,-18.90,-18.90,-18.76
-11.27,1.79,5.02,-12.67,-12.67,-11.69
-12.57,1.87,5.34,-7.21,-7.21,-7.21
-12.02,2.15,5.38,-3.29,-3.29,-3.29
-10.96,2.37,5.64,4.06,5.25,5.25
-11.21,2.49,6.13,11.20,11.69,11.69
-9.53,2.59,6.22,14.28,14.70,14.70
-8.17,2.55,6.03,17.64,19.67,19.67
-9.62,2.47,6.20,22.82,23.31,24.22
-11.36,1.71,6.77,29.40,29.40,30.45
-11.40,1.21,6.01,43.82,43.82,43.82
-9.94,1.84,5.94,55.72,55.72,55.72
-8.05,2.57,6.40,57.96,57.96,58.10
-6.89,2.49,5.74,60.83,60.83,60.83
-7.88,1.89,5.67,74.83,74.83,74.83
-7.47,2.26,6.13,82.25,82.25,84.21
-6.87,3.08,5.64,89.95,89.95,89.95
-7.22,2.97,4.87,104.51,104.51,104.51
-6.00,3.70,5.48,114.24,114.24,114.24
-4.84,4.68,5.19,117.39,117.60,117.60
-5.45,5.36,4.64,119.42,120.75,120.75
-5.58,5.05,4.01,122.85,123.27,123.27
-4.38,5.60,4.16,123.34,123.20,123.20
-4.20,5.93,4.25,121.38,121.17,121.17
-3.90,5.27,3.03,120.19,120.19,120.12
-2.36,5.51,2.79,119.84,119.42,119.42
-0.92,6.81,3.94,117.11,114.73,114.73
1.02,7.46,4.40,109.69,107.45,107.45
1.63,7.71,3.63,100.80,97.72,97.72
-0.11,8.28,2.82,92.82,91.77,89.67
-1.55,7.52,2.46,85.40,84.70,84.07
-1.45,8.04,1.78,85.96,85.96,86.52
-3.10,8.60,2.15,86.87,86.87,86.87
-3.39,8.86,2.28,82.04,82.04,82.04
-2.39,10.51,2.11,74.62,74.62,74.62
-2.57,11.44,2.86,58.45,58.45,58.45
-1.38,12.40,2.67,33.04,33.04,33.04
-0.47,13.33,2.25,5.04,5.04,5.04
-0.82,13.83,2.15,-25.69,-30.66,-30.66
-0.69,13.46,1.91,-66.36,-71.19,-71.19
-1.34,12.93,1.93,-101.50,-105.49,-105.49
-2.25,12.47,2.63,-138.32,-138.32,-142.10
-3.12,10.95,2.88,-159.32,-159.32,-167.79
-2.75,9.35,2.96,-176.75,-176.75,-177.73
-2.10,8.38,3.52,-180.60,-180.60,-180.67
-2.36,6.97,3.97,-180.74,-180.74,-180.74
-1.63,5.93,3.90,-176.68,-176.68,-176.68
-0.38,5.56,4.50,-171.78,-169.61,-169.61
-1.53,5.27,4.95,-162.82,-160.72,-160.72
-3.23,3.38,5.75,-153.09,-153.09,-150.01
-1.24,2.81,5.13,-136.71,-136.71,-131.74
-3.68,3.00,5.62,-113.19,-113.19,-113.19
-5.59,2.39,6.09,-100.73,-100.73,-100.73
-5.54,1.92,5.66,-86.38,-86.38,-86.38
-5.87,2.51,5.71,-72.10,-72.10,-72.10
-8.00,2.67,6.08,-61.04,-61.04,-61.04
-7.99,2.23,6.18,-55.72,-55.72,-55.72
-6.78,2.55,5.04,-51.73,-51.73,-51.31
-7.10,2.75,5.02,-50.82,-50.82,-51.03
-7.99,2.60,5.00,-53.41,-54.74,-55.23
-10.13,1.26,4.72,-40.25,-40.25,-40.25
-10.34,1.33,4.42,-36.26,-36.26,-36.19
-9.78,1.04,4.47,-32.97,-32.97,-32.20
-9.93,0.76,4.73,-25.69,-24.57,-24.57
-9.59,1.40,5.25,-21.07,-21.07,-21.21
-8.90,1.48,5.26,-25.34,-25.34,-25.62
-8.50,1.44,6.17,-24.15,-24.15,-23.38
-8.45,1.47,7.06,-16.10,-16.10,-16.10
-9.69,1.19,7.47,-14.07,-14.07,-14.07
-9.11,1.23,8.03,-13.23,-13.23,-13.23
-9.76,0.91,8.54,-7.00,-7.00,-7.00
-12.75,0.19,8.48,13.44,13.44,13.44
-13.82,0.33,8.10,27.93,27.93,27.93
-14.74,-0.07,7.60,39.48,39.48,39.48
-12.12,0.53,6.85,56.77,58.17,58.17
-10.55,1.72,5.91,70.49,70.49,70.98
-10.60,1.73,5.10,73.43,73.43,73.78
-11.05,1.59,4.91,75.81,75.81,76.02
-11.34,1.44,4.84,77.35,77.84,78.26
-10.68,1.90,4.15,78.89,78.89,78.75
-11.48,1.67,4.00,78.12,78.12,78.12
-12.53,1.29,4.05,77.56,77.56,77.56
-12.27,1.70,3.65,75.39,75.39,74.97
-11.04,2.02,2.78,67.62,67.62,67.62
-10.42,1.79,2.20,62.72,62.72,61.88
-10.45,2.15,2.52,56.14,56.14,55.16
-10.29,2.43,2.66,42.84,42.84,42.84
-9.97,2.03,2.21,33.46,33.46,33.46
-9.93,1.34,2.07,33.67,35.21,35.21
-9.81,0.65,2.27,42.35,42.35,45.50
-8.73,0.98,1.78,56.77,58.38,58.38
-8.42,0.71,1.67,73.22,73.22,75.11
-7.83,0.23,1.78,84.49,88.27,90.23
-7.75,0.93,1.83,102.20,102.20,102.20
-8.87,0.73,2.34,107.80,107.80,107.80
-7.77,0.40,1.91,115.22,115.22,115.22
-7.47,0.68,2.10,127.68,127.68,127.68
-7.55,0.47,1.97,144.34,146.02,146.02
-5.62,0.83,1.36,153.51,158.27,158.27
-4.64,2.48,0.72,167.23,168.14,168.14
-4.89,3.05,0.83,169.68,169.54,169.54
-4.35,3.13,0.53,168.35,167.79,166.81
-3.47,3.87,0.23,164.01,161.91,161.91
-3.18,5.14,0.24,152.74,152.74,152.74
-3.48,4.98,0.80,137.41,137.41,135.73
-3.72,6.17,0.42,124.67,124.67,124.67
-4.64,7.41,0.79,111.37,111.37,111.37
-5.84,8.43,1.12,93.45,86.17,86.17
-6.89,9.15,1.23,55.51,55.51,55.51
-6.59,9.30,0.50,26.53,26.53,26.53
-6.00,9.40,0.97,-24.43,-24.43,-24.43
-6.39,9.44,0.74,-53.55,-53.55,-53.55
-7.13,9.60,0.20,-72.03,-84.28,-84.28
-7.86,7.60,1.35,-105.14,-106.82,-106.82
-7.82,7.03,2.03,-110.25,-110.25,-110.11
-6.58,7.21,1.72,-110.46,-110.46,-111.02
-5.24,6.91,1.32,-116.90,-116.90,-116.90
-3.44,6.96,1.24,-124.25,-124.25,-124.25
-5.20,5.46,2.85,-132.16,-132.16,-132.16
-3.33,4.62,1.83,-137.34,-137.34,-137.34
-3.32,4.10,1.97,-138.81,-139.37,-139.37
-4.58,3.44,1.99,-141.61,-141.61,-141.61
-4.98,2.51,1.72,-139.23,-138.53,-138.53
-5.93,2.94,2.20,-131.32,-131.32,-130.83
-8.61,2.38,2.26,-130.20,-130.20,-130.34
-7.71,1.67,1.67,-127.96,-127.96,-127.33
-6.63,1.76,1.67,-118.37,-118.37,-118.37
-8.92,1.42,1.23,-114.03,-114.03,-114.03
-7.69,1.45,1.90,-114.45,-114.52,-114.52
-6.43,1.84,1.45,-113.19,-113.19,-112.07
-8.06,1.28,2.55,-107.59,-105.63,-105.63
-7.60,1.01,2.86,-100.94,-100.94,-100.10
-7.46,1.53,2.54,-97.51,-96.81,-96.81
-9.45,1.72,2.90,-86.31,-86.31,-85.12
-11.53,0.89,3.90,-79.73,-78.26,-77.63
-11.64,0.70,3.85,-73.78,-73.78,-73.78
-12.26,1.16,3.67,-67.27,-67.27,-67.27
-12.01,1.95,3.57,-64.75,-64.75,-64.75
-12.10,1.30,4.09,-74.13,-74.13,-74.13
-10.84,1.03,4.00,-82.39,-84.49,-84.49
-9.71,1.62,3.88,-89.74,-89.74,-91.42
-10.43,1.63,4.73,-95.97,-96.18,-96.18
-10.70,1.38,5.16,-96.25,-96.25,-95.83
-10.14,0.84,5.48,-91.21,-88.55,-87.01
-11.41,0.77,6.24,-80.08,-80.08,-78.12
-12.11,1.24,6.97,-78.96,-78.96,-79.24
-11.06,0.91,7.39,-75.39,-75.39,-74.06
-10.37,0.90,7.51,-67.48,-67.48,-66.50
-12.33,1.52,8.66,-63.42,-63.42,-63.35
-13.44,1.91,8.87,-64.26,-64.26,-64.40
-13.20,1.88,8.34,-63.56,-63.56,-62.44
-11.07,1.73,6.48,-44.59,-43.61,-43.61
-10.96,1.72,6.36,-34.72,-33.81,-33.81
-10.11,1.85,6.22,-30.24,-30.24,-30.24
-9.91,1.38,5.78,-27.16,-26.46,-26.46
-10.03,1.50,5.67,-17.22,-16.52,-16.52
-10.31,1.80,5.38,-14.98,-15.05,-15.05
-11.51,1.68,5.18,-14.91,-14.63,-14.63
-11.62,1.57,5.26,-10.08,-10.08,-10.08
-11.02,1.63,4.71,-2.73,-2.03,-2.03
-10.95,1.95,4.37,1.96,2.59,2.59
-11.22,1.93,4.28,5.04,6.09,6.09
-9.74,2.32,3.65,6.72,6.72,6.72
-8.74,3.10,3.22,3.43,2.73,2.73
-8.60,2.99,3.05,-1.26,-3.01,-3.01
-8.32,2.75,3.11,-4.41,-4.27,-4.27
-8.98,2.95,3.15,-4.76,-5.11,-5.11
-9.15,3.00,2.96,-12.39,-13.23,-13.23
-10.36,2.37,3.36,-18.55,-18.55,-18.55
-10.04,2.57,2.90,-24.15,-26.39,-26.39
-8.38,2.57,3.01,-33.32,-33.32,-35.84
-7.94,2.23,2.94,-44.31,-44.31,-44.31
-7.67,1.36,2.79,-63.49,-63.49,-63.49
-6.85,0.00,2.78,-71.54,-89.46,-71.75
-6.27,-0.35,3.13,-74.20,-74.20,-74.34
-6.35,-0.63,3.13,-74.27,-74.27,-74.20
-6.37,-0.77,2.60,-74.83,-74.83,-74.97
-5.86,-0.75,3.05,-73.22,-73.22,-73.22
-5.34,-0.88,2.74,-72.10,-72.10,-72.10
-6.33,-1.17,2.46,-72.38,-72.24,-72.24
-6.34,-1.27,2.82,-70.14,-70.14,-69.86
-6.08,-1.69,2.84,-67.13,-65.59,-64.89
-6.26,-1.89,2.81,-59.99,-59.99,-56.49
-5.78,-1.69,2.92,-50.33,-50.33,-49.21
-4.77,-1.50,3.05,-39.06,-39.06,-38.08
-5.58,-1.65,3.08,-31.57,-31.57,-31.57
-4.64,-1.93,3.08,-24.57,-21.77,-21.77
-3.49,-1.94,3.36,-12.11,-12.11,-8.68
-5.25,-1.81,3.69,1.96,1.96,5.11
-4.09,-1.42,3.43,17.01,17.01,17.01
-2.34,-0.88,3.39,27.58,28.91,28.91
-4.74,-0.95,3.84,37.45,38.85,38.85
-5.07,-0.67,3.53,50.61,51.87,51.87
-5.16,-0.34,3.96,59.85,59.85,59.85
-7.52,1.24,3.19,87.92,87.92,87.92
-8.49,1.31,3.35,86.03,86.03,86.03
-8.99,2.19,2.57,79.87,79.87,79.87
-7.50,2.84,2.25,68.32,68.32,68.32
-9.01,2.57,2.85,54.04,51.59,51.59
-9.61,3.02,1.74,36.82,36.82,35.56
-9.38,3.35,1.90,28.21,28.21,28.21
-10.77,2.94,3.24,10.78,10.78,10.78
-10.94,2.40,2.35,-7.14,-7.14,-7.14
-9.88,1.83,2.17,-7.00,-7.00,-7.00
-9.93,1.87,3.07,-6.37,-6.37,-6.37
-10.20,1.65,2.68,-8.33,-8.33,-8.33
-9.47,1.68,1.92,-2.52,-2.52,-2.52
-8.80,1.66,2.58,7.49,7.49,7.49
-9.08,1.31,3.16,7.28,6.79,6.79
-8.37,1.00,3.33,-1.40,-1.40,-1.89
-8.28,0.62,3.92,-2.80,-2.59,-2.59
-10.05,-0.10,4.91,-2.10,-2.17,-2.17
-10.36,-0.26,4.77,-3.08,-3.08,-2.87
-11.92,-0.48,5.94,1.61,1.61,2.45
-13.23,-1.19,6.09,7.63,10.08,11.27
-12.65,-1.47,5.55,19.18,19.18,20.09
-12.22,-1.03,6.01,25.20,27.09,28.00
-12.42,-0.23,6.52,30.94,30.94,31.64
-11.39,-0.22,6.48,32.27,32.27,32.27
-10.58,0.76,5.76,26.25,26.25,26.25
-12.01,1.73,6.89,11.20,11.20,10.43
-11.92,1.73,6.20,8.96,8.96,8.89
-12.85,2.04,5.83,9.17,9.17,9.17
-14.12,2.22,5.27,9.24,9.24,9.24
-14.62,1.99,3.67,15.40,15.40,15.40
-14.68,2.46,2.92,21.56,21.56,21.56
-14.66,3.02,2.71,20.72,19.11,19.11
-14.17,2.48,2.77,13.23,13.23,11.90
-11.78,0.83,2.39,19.04,19.04,19.04
-11.88,0.86,2.86,21.14,21.14,21.14
-11.15,0.48,2.70,22.75,23.45,23.45
-10.09,0.14,2.61,30.10,30.10,30.10
-10.08,-0.18,2.89,40.67,40.67,40.67
-9.52,-0.04,2.61,46.62,47.46,47.46
-7.38,0.58,2.71,51.66,51.66,51.73
-7.96,0.20,3.25,52.01,52.01,52.01
-7.98,-0.36,3.22,63.49,63.49,63.49
-8.87,-0.42,3.46,76.44,76.44,79.66
-8.40,0.12,4.04,84.56,84.56,84.56
-7.21,0.19,3.65,85.75,86.59,86.59
-7.11,-0.31,3.66,98.70,103.95,106.61
-6.76,-0.22,4.11,117.88,117.88,122.78
-5.51,0.55,4.11,129.64,129.64,130.97
-3.80,1.77,3.90,144.83,144.83,152.67
-2.46,3.54,4.62,175.63,175.63,175.63
-1.68,5.07,4.83,173.74,172.90,172.90
-3.06,5.09,4.85,169.54,169.54,169.05
-3.06,4.78,4.09,170.03,170.03,170.03
-1.56,7.00,3.67,160.30,160.37,160.37
0.24,9.41,3.59,159.25,159.25,158.27
-0.24,10.79,4.14,144.34,144.34,126.42
-0.07,9.98,4.31,127.26,127.26,127.26
-1.34,9.85,4.94,112.63,112.63,112.63
-2.03,11.21,4.00,83.86,83.86,83.86
-1.48,11.92,3.51,56.70,56.70,56.70
-0.46,12.52,3.31,26.95,23.87,23.87
-1.62,13.10,3.75,-1.68,-5.95,-5.95
-3.04,13.23,3.96,-32.55,-36.61,-36.61
-2.43,12.89,3.75,-69.79,-69.79,-69.79
-2.77,12.57,3.68,-97.16,-97.16,-101.01
-3.32,12.21,3.99,-132.02,-132.02,-132.02
-2.53,11.08,4.26,-163.10,-163.10,-165.97
-1.66,10.24,4.20,-182.28,-182.28,-184.52
-2.82,9.28,4.35,-199.71,-199.71,-199.71
-3.26,6.94,3.88,-215.95,-216.30,-216.30
-3.18,5.04,3.85,-212.31,-210.77,-210.77
-4.47,3.86,4.97,-194.60,-194.60,-193.06
-5.20,2.47,5.22,-184.52,-182.63,-182.63
-3.67,1.60,4.68,-164.78,-164.78,-161.63
-2.70,2.09,5.39,-131.74,-131.74,-129.08
-4.65,1.39,5.76,-115.85,-115.85,-115.85
-4.73,0.54,5.25,-94.92,-91.98,-91.98
-4.08,0.55,5.23,-76.58,-67.69,-67.69
-5.99,1.22,5.72,-55.79,-53.97,-51.24
-8.02,1.40,5.63,-46.27,-45.57,-44.17
-7.44,2.05,5.35,-39.34,-38.57,-38.57
-7.92,2.56,5.28,-35.70,-35.70,-35.70
-8.23,2.68,4.63,-48.58,-48.58,-48.58
-7.80,2.64,4.44,-57.47,-58.17,-58.17
-8.99,2.58,4.65,-61.60,-62.30,-62.30
-9.79,2.30,4.41,-67.13,-67.13,-67.76
-9.36,2.20,4.47,-70.70,-71.26,-71.47
-10.30,1.64,5.08,-70.21,-69.79,-69.79
-10.68,1.16,6.17,-57.54,-57.54,-57.33
-11.10,0.56,6.37,-54.88,-54.88,-54.18
-11.01,-0.32,6.18,-45.36,-45.36,-44.45
-10.94,-0.27,6.30,-39.27,-39.27,-39.27
-11.52,0.04,6.11,-32.55,-31.57,-31.57
-11.92,-0.67,5.56,-5.46,2.03,2.03
-11.67,-0.09,5.12,17.50,17.50,17.50
-12.27,0.37,4.65,34.02,34.02,34.02
-12.31,0.48,4.46,45.29,45.29,45.29
-11.53,1.23,4.15,55.58,56.28,56.28
-11.27,1.67,4.03,57.75,58.24,58.24
-11.28,1.56,3.98,59.29,60.34,60.34
-11.27,1.81,4.35,63.84,63.84,63.84
-11.65,1.78,4.46,65.52,66.01,66.01
-11.08,1.28,4.42,71.82,73.08,73.08
-9.75,1.41,4.70,81.69,83.02,83.02
-9.51,1.78,4.78,94.50,94.50,95.69
-9.36,2.04,4.56,101.36,101.36,104.93
-7.58,2.29,4.50,113.05,113.05,113.05
-7.47,2.25,4.31,119.84,119.84,119.84
-7.25,2.05,3.82,126.84,129.50,129.50
-5.68,2.74,3.93,134.40,134.40,135.17
-5.89,2.54,4.81,136.22,136.22,136.22
-5.56,2.55,3.47,144.62,148.19,150.15
-5.26,3.48,2.78,157.22,157.22,159.46
-3.84,4.44,3.66,159.67,159.67,159.46
-2.37,5.03,3.23,157.50,157.50,158.48
-1.52,5.31,2.07,162.68,162.68,163.66
-1.21,6.05,2.78,164.64,164.64,164.64
2.02,7.99,2.72,158.69,157.50,157.50
2.55,9.06,2.46,145.04,145.04,143.57
1.49,8.62,2.52,134.61,134.61,134.61
3.25,9.77,2.04,121.59,120.40,120.40
2.39,10.72,2.48,114.80,111.37,111.37
1.68,10.32,2.04,102.97,102.97,102.97
2.87,10.56,2.49,95.76,95.76,95.76
2.89,12.77,2.71,88.97,85.19,85.19
2.67,13.54,3.06,67.76,67.76,67.76
3.66,13.43,2.79,40.53,40.53,40.53
3.09,13.42,3.63,23.59,23.59,23.59
3.24,14.20,3.48,1.75,-0.98,-0.98
3.78,14.58,3.43,-22.89,-26.53,-26.53
2.46,15.07,4.14,-51.24,-55.79,-55.79
2.38,15.14,3.56,-93.94,-93.94,-97.65
2.95,14.33,3.69,-119.07,-119.07,-121.73
2.42,13.44,3.77,-137.62,-137.62,-140.56
0.15,12.20,4.60,-166.18,-166.18,-166.18
0.53,10.35,4.67,-174.02,-174.02,-174.02
1.21,9.63,5.01,-174.44,-174.44,-174.44
-0.77,8.38,5.51,-178.85,-180.32,-180.32
0.33,7.15,4.99,-179.62,-179.62,-177.80
-1.45,5.61,5.78,-163.52,-162.89,-162.89
-1.78,4.42,5.18,-160.51,-158.76,-158.76
-1.86,3.72,5.04,-149.45,-149.45,-145.39
-3.78,3.01,5.84,-133.21,-133.21,-133.21
-4.97,2.42,5.71,-118.79,-117.39,-117.39
-3.85,2.56,5.42,-108.99,-108.99,-107.52
-4.09,2.12,5.90,-96.81,-96.81,-96.81
-4.22,1.75,5.25,-78.40,-78.40,-78.40
-4.35,1.86,5.16,-74.97,-74.97,-74.97
-5.90,1.54,5.72,-69.51,-69.51,-69.51
-6.95,1.58,5.53,-67.20,-66.64,-66.64
-7.52,1.80,5.36,-63.63,-63.63,-63.28
-8.30,1.33,5.84,-60.06,-60.06,-59.57
-8.25,1.10,5.64,-56.70,-56.70,-56.70
-7.93,1.12,5.17,-53.48,-52.36,-52.36
-8.70,0.97,5.58,-48.79,-48.79,-48.79
-9.01,0.65,5.58,-41.86,-41.86,-41.86
-8.15,0.69,5.53,-40.46,-40.46,-40.46
-9.18,0.42,6.11,-36.40,-35.49,-35.49
-9.88,0.16,6.21,-28.91,-27.93,-27.93
-9.52,0.32,6.22,-19.39,-19.39,-18.34
-9.77,0.26,6.13,-12.46,-10.15,-8.96
-10.46,0.12,6.14,-3.64,-3.64,-2.59
-11.06,0.53,5.90,1.96,1.96,2.24
-9.83,0.74,5.43,2.59,2.59,2.59
-9.45,1.11,4.98,0.63,0.21,0.21
-8.94,1.82,4.94,-2.03,-2.03,-2.03
-8.99,2.50,4.88,-2.94,-3.22,-3.22
-9.91,2.79,4.81,-6.93,-7.21,-7.21
-10.42,2.87,4.79,-8.89,-8.96,-8.96
-11.02,2.86,4.85,-8.96,-9.03,-9.03
-12.43,2.66,5.04,-9.52,-9.52,-9.52
-13.94,2.41,4.87,-6.23,-5.32,-5.32
-14.67,2.37,4.55,-1.26,1.47,1.47
-13.69,2.43,3.83,6.51,7.21,7.21
-12.19,2.33,3.18,10.36,10.36,11.27
-10.72,1.07,3.13,24.57,24.57,24.57
-9.72,0.16,3.13,46.06,46.06,46.06
-9.88,0.35,3.33,61.11,64.75,64.75
-10.28,0.91,3.62,73.36,73.36,76.30
-9.44,0.00,4.02,93.31,93.31,93.31
-9.21,-0.12,3.90,115.29,115.29,115.29
-9.06,0.60,3.69,130.20,130.20,130.20
-7.16,1.22,3.62,138.53,138.53,138.53
-5.26,1.78,4.09,142.73,142.73,143.22
-5.67,1.77,4.06,149.59,149.59,149.59
-4.51,1.92,3.90,157.71,160.23,160.23
-2.05,4.39,4.52,162.40,161.77,161.77
-2.55,4.53,4.85,153.02,153.02,153.09
-3.21,4.19,3.92,157.99,161.63,163.45
-2.14,6.12,4.55,168.91,168.91,167.72
-1.71,7.83,6.37,154.28,154.28,154.28
-0.79,8.14,4.94,141.61,140.07,140.07
-1.60,8.02,3.31,136.85,136.85,135.52
-0.36,8.66,3.49,127.82,127.82,127.82
2.95,9.49,3.14,109.06,109.06,109.06
2.88,9.68,2.61,105.98,105.98,105.98
1.67,9.38,2.18,105.84,105.84,105.63
1.85,8.99,2.25,101.43,100.45,100.45
1.96,9.40,2.36,101.85,101.85,103.18
1.73,9.87,2.12,107.45,107.45,107.45
2.34,10.34,2.10,102.48,102.48,102.48
1.58,11.37,2.68,94.64,91.63,91.63
0.54,12.19,2.58,81.41,81.41,79.31
1.23,13.13,2.55,62.93,62.93,56.91
1.67,14.09,2.41,36.19,36.19,36.19
0.96,14.32,2.41,-0.91,-0.91,-0.91
2.02,15.29,2.20,-23.59,-27.93,-27.93
1.59,14.96,2.34,-62.02,-67.20,-67.20
1.90,14.62,1.98,-106.33,-106.33,-106.33
2.05,14.43,2.03,-137.06,-149.80,-149.80
-0.08,12.20,3.23,-174.23,-174.23,-174.23
0.74,10.58,2.86,-185.36,-185.36,-185.36
-0.50,6.53,3.90,-167.93,-167.93,-167.93
0.20,6.63,4.13,-151.27,-151.27,-151.27
-1.34,6.01,4.92,-146.44,-146.44,-146.44
-1.67,4.62,4.57,-143.08,-143.08,-143.08
-1.55,4.23,4.65,-133.98,-133.00,-133.00
-2.65,4.40,5.23,-129.43,-128.52,-128.52
-4.41,3.46,5.45,-127.12,-126.49,-126.49
-4.06,3.31,5.22,-121.17,-121.17,-121.17
-4.33,3.63,5.74,-110.32,-110.32,-110.32
-6.17,3.51,5.97,-107.52,-107.52,-107.52
-5.61,3.46,5.93,-105.98,-105.14,-105.14
-4.82,3.38,5.70,-101.92,-101.92,-101.29
-5.50,3.44,6.11,-101.29,-101.29,-102.13
-6.60,2.65,6.05,-105.77,-105.77,-105.77
-6.70,1.63,5.48,-107.38,-107.38,-107.38
-6.97,1.30,5.52,-103.74,-103.74,-103.74
-8.41,0.24,5.11,-92.89,-92.89,-92.89
-8.60,-0.16,4.95,-86.38,-86.38,-85.47
-9.57,-0.61,5.36,-77.14,-75.67,-75.67
-9.90,-0.78,5.25,-64.68,-63.21,-63.21
-9.07,-0.82,5.11,-54.46,-53.20,-53.20
-8.83,-0.57,5.37,-46.48,-42.35,-42.35
-9.22,-0.40,5.59,-36.12,-35.00,-33.04
-9.40,-0.37,6.06,-28.35,-27.44,-27.44
-8.82,-0.10,6.71,-20.30,-19.74,-19.74
-7.87,0.15,6.90,-18.69,-18.90,-18.90
-7.90,0.78,7.44,-21.49,-21.42,-21.42
-7.45,0.83,7.93,-19.74,-19.74,-19.74
-7.20,0.98,7.45,-14.77,-14.77,-14.77
-8.06,1.61,7.44,-13.02,-12.46,-12.46
-9.17,2.07,8.00,-8.47,-6.30,-6.30
-9.53,2.33,8.51,-0.63,0.84,0.84
-9.65,2.60,7.83,2.17,2.17,2.17
-8.84,2.44,7.21,-1.61,-1.61,-2.38
-7.10,2.36,7.14,-7.49,-7.49,-7.49
-5.80,2.35,6.66,-10.78,-11.83,-11.83
-4.92,2.38,5.90,-15.89,-17.78,-17.78
-2.74,1.88,5.59,-25.83,-26.88,-26.88
-2.57,1.00,4.99,-31.85,-32.20,-32.20
-3.02,0.45,4.50,-34.16,-34.16,-34.65
-1.98,0.58,5.00,-37.87,-39.48,-39.48
-2.06,0.82,4.88,-44.17,-44.73,-44.73
-2.59,0.75,3.90,-43.75,-43.75,-43.26
-0.51,0.31,4.13,-41.23,-40.60,-40.74
0.94,-0.07,5.11,-41.23,-41.23,-41.37
0.81,-0.35,4.24,-38.50,-38.50,-38.50
2.97,-0.48,3.88,-29.96,-29.96,-29.96
5.67,-0.80,5.70,-29.47,-29.47,-29.47
7.57,-1.30,6.22,-30.87,-30.31,-30.31
5.78,-1.63,4.70,-19.46,-19.46,-17.01
8.04,-1.01,5.16,0.63,2.45,2.45
11.87,-1.23,6.76,4.97,4.97,4.62
12.37,-1.29,6.28,3.85,3.85,6.02
8.92,-0.93,4.33,15.19,15.19,17.71
7.54,-0.43,4.97,38.92,38.92,40.46
12.40,-0.22,5.53,47.04,47.04,47.04
12.62,0.16,4.85,56.77,58.52,58.52
9.62,1.18,3.42,70.70,72.87,72.87
9.31,2.04,3.37,89.53,89.53,90.72
12.17,2.06,3.66,95.76,95.76,96.25
12.31,2.34,2.78,98.70,98.70,99.05
11.44,2.92,0.88,103.32,103.32,103.32
11.27,4.10,0.45,109.20,109.20,109.20
12.98,4.71,0.86,108.85,108.85,108.85
13.52,5.39,0.46,101.78,101.78,101.78
13.41,5.92,-0.48,89.95,89.95,89.95
14.07,6.47,-1.32,80.01,76.65,76.65
13.61,6.37,-1.61,63.91,63.91,63.91
12.68,6.01,-1.49,49.14,47.46,47.46
12.52,5.35,-1.51,37.17,35.56,35.56