aX,aY,aZ,gX,gY,gZ
2.67,0.94,-43.05,-43.61,-43.61
-9.67,2.61,1.04,-48.09,-48.09,-48.72
-9.11,2.57,1.01,-57.33,-57.33,-57.33
-9.15,2.47,0.96,-60.41,-60.41,-60.41
-9.22,2.50,0.95,-62.16,-62.16,-62.16
-9.47,2.57,0.97,-63.56,-64.05,-64.05
-9.62,2.66,0.92,-65.45,-66.29,-66.29
-9.63,2.71,1.00,-68.53,-68.81,-68.81
-9.70,2.81,1.07,-72.10,-72.10,-72.52
-9.60,2.83,1.00,-74.69,-75.53,-75.95
-9.37,2.88,0.98,-78.05,-78.05,-79.24
-9.35,2.92,0.97,-81.90,-81.90,-81.90
-9.32,2.93,1.00,-84.84,-84.84,-85.05
-9.19,2.94,1.06,-87.99,-87.99,-87.99
-9.04,2.96,0.98,-89.81,-90.51,-90.51
-8.84,2.90,0.85,-92.12,-92.33,-92.33
-8.82,2.85,0.71,-93.59,-93.87,-93.87
-8.95,2.80,0.61,-94.43,-94.43,-94.43
-9.12,2.68,0.55,-93.59,-93.59,-93.45
-9.23,2.57,0.50,-91.98,-91.14,-91.14
-9.38,2.48,0.48,-88.41,-87.36,-87.36
-9.49,2.36,0.45,-83.44,-82.74,-82.74
-9.50,2.15,0.53,-75.95,-75.95,-74.90
-9.54,2.00,0.57,-70.14,-67.97,-66.85
-9.59,1.88,0.77,-58.66,-58.66,-57.47
-9.66,1.83,0.89,-50.82,-48.09,-46.69
-9.71,1.82,1.08,-39.48,-39.48,-35.07
-9.77,1.86,1.24,-24.71,-24.71,-23.17
-9.80,1.93,1.32,-13.30,-13.30,-13.30
-9.71,1.99,1.29,-2.59,-2.59,-2.59
-9.60,2.07,1.21,5.53,5.53,6.65
-9.45,2.14,1.12,14.14,14.14,14.14
-9.34,2.16,1.16,20.02,20.02,20.02
-9.35,2.21,1.27,24.64,24.64,24.64
-9.46,2.30,1.40,27.79,27.79,27.79
-9.66,2.31,1.55,29.96,29.96,29.96
-9.85,2.34,1.66,31.71,32.06,32.06
-10.03,2.44,1.79,32.62,32.62,32.69
-9.92,2.37,1.81,32.27,32.27,32.27
-9.69,2.34,1.74,32.34,32.34,32.34
-9.49,2.32,1.66,32.97,32.97,32.97
-9.38,2.29,1.60,33.81,33.81,33.81
-9.42,2.33,1.59,37.38,37.87,37.87
-9.52,2.42,1.62,40.32,40.32,40.81
-9.66,2.62,1.67,44.52,44.52,44.87
-9.66,2.77,1.52,48.23,48.23,48.23
-9.64,3.05,1.36,51.52,52.71,52.71
-9.53,3.44,1.04,56.84,57.47,57.47
-9.48,3.70,0.68,62.93,62.93,63.49
-9.38,3.89,0.36,67.34,67.34,67.97
-9.27,3.99,-0.01,73.92,73.92,73.92
-9.03,4.15,-0.22,77.35,77.35,77.35
-8.83,4.25,-0.52,81.90,81.90,81.90
-8.62,4.32,-0.72,83.30,83.65,83.65
-8.45,4.36,-0.89,83.65,83.65,83.65
-8.34,4.28,-1.12,78.26,78.26,77.77
-8.48,4.20,-1.13,73.71,73.71,73.71
-8.64,4.19,-1.15,69.37,69.37,69.37
-8.90,4.15,-1.16,65.80,64.54,64.54
-9.09,4.08,-1.17,61.11,61.11,59.92
-9.11,4.00,-1.13,56.35,55.93,55.93
-9.09,3.98,-1.14,51.24,51.24,50.75
-8.81,3.98,-1.18,47.53,47.53,46.97
-8.53,3.88,-1.17,43.19,43.19,42.70
-8.24,3.81,-1.08,39.13,39.13,38.08
-8.16,3.63,-0.97,34.30,34.30,34.30
-8.25,3.38,-0.91,30.03,29.68,29.68
-8.41,3.22,-0.87,26.46,26.04,26.04
-8.69,3.13,-0.81,22.61,22.12,22.12
-9.02,3.01,-0.80,19.32,17.57,17.57
-9.42,2.89,-0.93,13.44,13.44,13.44
-9.70,2.83,-0.95,7.49,7.49,7.49
-9.93,2.75,-0.96,3.78,3.78,3.78
-10.06,2.73,-0.88,0.21,0.21,0.21
-10.16,2.77,-0.60,-2.94,-3.15,-3.15
-10.24,2.81,-0.28,-4.34,-4.48,-4.48
-10.25,2.89,0.08,-5.04,-5.04,-4.83
-10.06,2.94,0.50,-4.06,-4.06,-3.78
-9.80,2.99,1.12,-0.84,-0.84,-0.42
-9.38,3.05,1.49,1.54,2.24,2.73
-8.91,3.09,1.85,4.62,4.62,5.67
-8.62,3.02,2.01,7.63,7.63,7.63
-8.54,2.85,2.01,9.94,10.85,10.85
-8.57,2.79,1.92,12.67,12.95,13.51
-8.77,2.84,1.81,15.05,15.05,15.19
-9.19,2.93,1.70,15.82,15.82,15.82
-10.00,3.30,1.40,12.46,12.46,12.46
-10.18,3.40,1.33,10.08,9.45,9.45
-10.13,3.46,1.18,7.14,7.14,6.51
-9.94,3.46,1.15,4.69,4.48,4.48
-9.77,3.54,1.14,2.87,2.87,2.73
-9.55,3.66,1.26,1.40,1.40,1.33
-9.14,3.64,1.37,-0.35,-0.35,-0.35
-8.93,3.55,1.69,-1.40,-1.33,-1.33
-8.75,3.39,1.86,-0.98,-0.98,-0.98
-8.68,3.20,2.00,-0.28,-0.07,-0.07
-8.70,3.01,2.07,0.42,0.42,0.35
-8.72,2.77,2.17,0.42,0.42,0.56
-8.75,2.59,2.22,0.21,0.21,0.21
-8.84,2.38,2.28,-0.63,-0.91,-0.91
-8.88,2.23,2.36,-1.26,-1.54,-1.54
-8.95,2.14,2.50,-1.96,-2.24,-2.24
-9.03,2.02,2.60,-2.59,-2.66,-2.52
-9.18,1.84,2.68,-1.96,-1.75,-1.75
-9.41,1.72,2.75,0.14,0.14,0.14
-9.68,1.66,2.75,2.38,2.38,2.38
-10.01,1.63,2.68,4.27,4.55,4.90
-10.22,1.60,2.53,7.07,7.07,7.07
-10.30,1.59,2.36,8.75,9.38,9.38
-10.24,1.62,2.11,10.85,10.85,11.34
-9.98,1.60,1.79,12.67,12.67,12.67
-9.61,1.63,1.45,15.19,15.19,15.19
-9.37,1.67,1.23,16.45,16.87,16.87
-9.44,1.81,0.98,18.48,18.83,19.11
-9.73,1.97,0.75,19.88,19.88,19.88
-9.84,2.10,0.47,20.09,20.16,20.16
-9.83,2.25,0.27,19.81,19.60,19.60
-9.68,2.44,0.00,18.55,18.34,18.34
-9.49,2.60,-0.28,16.31,15.82,15.82
-9.26,2.68,-0.45,13.16,13.16,12.81
-9.01,2.78,-0.41,11.34,10.71,10.43
-8.92,2.90,-0.39,8.96,8.05,7.70
-9.03,3.10,-0.22,4.97,4.41,4.41
-9.15,3.24,0.00,-0.14,-0.14,-0.70
-9.39,3.38,0.22,-4.48,-4.48,-4.97
-9.55,3.48,0.32,-7.63,-8.61,-9.24
-9.76,3.56,0.44,-11.62,-11.62,-13.09
-9.91,3.60,0.61,-16.03,-16.03,-16.52
-9.94,3.62,0.73,-18.62,-18.62,-18.76
-9.88,3.50,0.82,-20.02,-20.02,-20.09
-9.53,3.39,0.93,-19.74,-19.74,-19.74
-9.30,3.32,1.00,-18.06,-18.06,-0.14
-9.01,3.24,1.03,-16.38,-15.82,-15.82
-8.89,3.16,0.97,-14.63,-14.63,-14.63
-8.67,3.01,0.79,-13.16,-13.16,-13.16
-8.56,2.90,0.67,-12.18,-12.18,-12.18
-8.62,2.64,0.54,-10.92,-10.92,-10.92
-8.81,2.47,0.52,-9.80,-9.45,-9.45
-9.08,2.36,0.50,-8.61,-8.61,-8.33
-9.32,2.28,0.56,-7.70,-7.70,-7.70
-9.49,2.21,0.63,-7.42,-7.42,-7.42
-9.62,2.16,0.60,-7.42,-7.42,-7.42
-9.71,2.14,0.60,-7.49,-7.56,-7.56
-9.78,2.15,0.55,-7.91,-7.91,-7.84
-9.85,2.26,0.74,-8.47,-8.47,-8.47
-9.81,2.33,0.84,-8.33,-8.26,-8.26
-9.63,2.44,1.03,-7.42,-7.42,-7.07
-9.34,2.52,1.19,-5.04,-5.04,-5.04
-9.15,2.60,1.32,-2.66,-2.66,-2.66
-8.97,2.66,1.56,0.56,0.98,0.98
-8.93,2.71,1.63,3.08,3.08,3.08
-8.97,2.75,1.72,5.25,5.67,5.67
-9.13,2.80,1.71,6.65,6.65,6.72
-9.26,2.79,1.67,6.72,6.72,6.86
-9.34,2.79,1.65,5.95,5.95,5.95
-9.43,2.77,1.57,4.69,4.34,4.34
-9.36,2.79,1.45,1.40,1.40,1.05
-9.25,2.72,1.31,-0.84,-1.54,-1.96
-9.20,2.67,1.30,-4.69,-4.69,-4.69
-9.23,2.56,1.15,-8.05,-8.05,-8.05
-9.35,2.50,1.06,-11.20,-11.20,-11.20
-9.50,2.38,1.13,-14.00,-14.28,-14.28
-9.71,2.27,1.08,-15.68,-15.82,-15.82
-9.82,2.26,1.26,-16.80,-16.80,-17.01
-9.88,2.28,1.32,-17.29,-17.29,-17.29
-9.75,2.27,1.34,-16.87,-16.80,-16.80
-9.54,2.21,1.34,-15.33,-15.12,-15.12
-9.41,2.16,1.31,-13.44,-13.44,-13.16
-9.31,2.23,1.39,-10.29,-10.29,-10.29
-9.30,2.31,1.50,-8.40,-7.91,-7.91
-9.38,2.40,1.53,-5.74,-5.74,-5.60
-9.48,2.49,1.51,-4.76,-4.76,-4.69
-9.54,2.60,1.41,-4.62,-4.62,-4.69
-9.62,2.70,1.37,-5.88,-5.88,-6.16
-9.53,2.77,1.26,-8.12,-8.12,-8.40
-9.48,2.86,1.19,-10.57,-10.57,-11.06
-9.34,2.87,1.23,-13.93,-13.93,-14.28
-9.25,2.90,1.10,-17.92,-17.92,-17.92
-9.21,2.94,0.97,-23.59,-23.87,-23.87
-9.31,3.01,0.96,-25.20,-26.11,-26.11
-9.40,2.99,0.97,-27.51,-27.51,-27.51
-9.48,3.04,1.07,-28.35,-28.35,-28.35
-9.50,3.00,1.10,-28.42,-28.21,-28.21
-9.52,2.92,1.07,-27.37,-27.37,-26.88
-9.47,2.86,1.06,-25.41,-25.41,-25.41
-9.36,2.84,1.12,-22.89,-22.26,-22.26
-9.28,2.80,1.08,-20.09,-20.09,-19.46
-9.26,2.78,1.13,-17.22,-17.22,-17.22
-9.27,2.81,1.15,-14.91,-14.56,-14.28
-9.21,2.85,1.24,-12.67,-12.39,-12.39
-9.22,2.79,1.25,-9.80,-9.80,-9.45
-9.23,2.78,1.29,-7.70,-6.93,-6.65
-9.23,2.80,1.28,-5.18,-5.18,-4.41
-9.36,2.87,1.23,-2.73,-2.73,-2.73
-9.42,2.92,1.19,-0.70,-0.70,-0.70
-9.41,3.07,1.20,0.07,0.07,0.07
-9.32,3.20,1.15,0.00,0.00,0.00
-9.17,3.32,1.07,0.07,0.00,0.00
-9.04,3.42,1.06,-0.28,-0.35,-0.42
-8.95,3.54,0.96,-0.91,-1.26,-1.40
-8.99,3.63,0.83,-2.66,-2.66,-2.66
-9.06,3.66,0.75,-4.06,-4.20,-4.20
-9.17,3.65,0.78,-4.90,-4.97,-4.97
-9.41,3.62,0.86,-5.32,-5.39,-5.39
-9.45,3.61,0.97,-5.39,-5.32,-5.32
-9.43,3.56,1.04,-4.97,-4.90,-4.90
-9.25,3.61,1.12,-5.18,-5.18,-5.18
-8.86,3.45,1.12,-6.65,-6.65,-6.65
-8.76,3.26,1.17,-6.44,-6.30,-6.30
-8.81,3.24,1.22,-6.09,-6.09,-6.02
-8.99,3.20,1.29,-5.53,-5.53,-5.53
-9.14,3.08,1.32,-4.55,-4.55,-4.55
-9.25,3.03,1.38,-3.29,-3.22,-3.22
-9.20,3.04,1.38,-2.66,-2.59,-2.59
-9.17,2.95,1.36,-2.31,-1.96,-1.96
-9.17,2.82,1.34,-1.12,-0.91,-0.21
-9.27,2.74,1.34,1.47,1.47,1.89
-9.30,2.70,1.31,4.62,4.62,4.97
-9.34,2.71,1.26,6.72,6.72,7.00
-9.34,2.71,1.21,8.61,8.61,8.75
-9.43,2.79,1.10,9.73,9.73,9.73
-9.57,2.84,1.00,9.94,9.94,9.94
-9.53,2.84,0.89,9.52,9.52,9.38
-9.45,2.68,0.79,9.52,9.52,9.52
-9.37,2.52,0.72,10.43,10.64,10.64
-9.54,2.45,0.73,11.20,11.20,11.27
-9.68,2.28,0.85,12.60,12.60,12.60
-9.69,2.31,0.88,14.98,14.98,14.98
-9.70,2.49,0.94,16.24,16.45,16.45
-9.72,2.85,1.02,16.31,16.31,15.82
-9.61,3.15,0.98,14.56,14.56,13.79
-9.40,3.52,1.02,11.90,11.90,11.90
-9.41,3.80,1.23,9.73,9.52,9.52
-9.33,3.99,1.52,8.68,8.68,8.61
-9.19,4.17,1.74,8.05,8.05,8.05
-8.93,4.34,1.90,7.63,7.63,7.42
-8.54,4.24,2.12,7.56,7.56,7.56
-8.45,4.24,2.40,8.89,8.89,8.89
-8.34,4.21,2.68,10.43,10.71,10.71
-8.28,4.26,2.82,12.46,12.46,12.46
-8.23,4.38,3.04,13.44,13.44,13.44
-8.13,4.37,3.16,13.93,14.07,14.07
-7.96,3.93,3.13,15.75,15.75,16.10
-7.88,3.73,3.03,18.97,19.46,19.46
-8.37,3.80,2.98,22.54,22.54,22.61
-8.52,3.73,2.98,22.40,22.40,22.40
-8.60,3.69,2.98,22.26,22.33,22.33
-8.57,3.77,2.89,21.84,21.56,21.56
-8.73,3.68,2.80,20.30,19.95,19.95
-8.72,3.61,2.71,17.22,17.22,16.87
-8.89,3.48,2.70,15.33,15.33,14.21
-9.17,3.31,2.70,11.55,11.55,11.55
-9.15,3.29,2.72,7.14,7.14,7.14
-8.99,3.16,2.71,4.06,4.06,4.06
-8.86,3.02,2.72,0.77,0.77,0.77
-8.82,2.95,2.78,-0.56,-0.98,-0.98
-8.89,2.94,2.81,-1.96,-1.96,-2.10
-8.94,2.97,2.93,-2.45,-2.45,-2.45
-9.03,3.21,3.14,-3.08,-3.08,-3.08
-9.02,3.41,3.32,-4.27,-4.27,-4.27
-9.08,3.68,3.42,-5.46,-6.02,-6.02
-8.93,3.80,3.55,-7.07,-7.07,-7.07
-8.75,3.75,3.59,-6.02,-5.53,-5.53
-8.39,3.63,3.65,-3.08,-3.08,-2.73
-8.15,3.46,3.48,1.40,1.40,1.40
-8.04,3.29,3.34,3.99,4.83,4.83
-8.20,3.17,3.24,7.14,7.14,7.84
-8.43,3.01,3.14,9.45,9.45,9.87
-8.59,2.80,2.92,10.71,11.06,11.06
-8.67,2.54,2.67,12.18,12.18,12.53
-8.85,2.32,2.41,13.09,13.09,13.16
-9.18,2.13,2.14,12.74,12.74,12.74
-9.36,1.88,1.86,11.69,11.69,11.48
-9.58,1.70,1.56,10.08,10.08,10.08
-9.77,1.60,1.41,8.12,8.12,8.12
-9.89,1.49,1.33,4.62,4.62,4.62
-9.89,1.42,1.24,1.89,1.89,1.89
-9.74,1.41,1.24,-0.28,-0.28,-0.28
-9.65,1.41,1.20,-2.66,-3.01,-3.01
-9.50,1.42,1.26,-4.41,-5.25,-5.25
-9.35,1.35,1.18,-6.37,-7.00,-7.00
-9.21,1.38,1.09,-7.98,-7.98,-7.98
-9.20,1.42,1.07,-9.24,-9.24,-9.24
-9.20,1.45,0.93,-10.50,-10.57,-10.57
-9.32,1.50,0.85,-10.71,-10.78,-10.78
-9.43,1.49,0.61,-10.64,-10.64,-10.57
-9.61,1.57,0.43,-9.94,-9.80,-9.45
-10.06,1.58,0.31,-8.33,-8.33,-7.56
-10.30,1.58,0.15,-5.04,-5.04,-5.04
-10.35,1.60,-0.02,-0.07,-0.07,-0.07
-10.31,1.65,-0.11,4.06,4.06,4.06
-10.13,1.78,-0.22,6.23,6.79,6.79
-10.14,1.87,-0.33,8.40,8.40,8.68
-9.93,1.85,-0.37,9.52,9.52,9.94
-9.73,1.77,-0.42,10.92,10.92,10.92
-9.67,1.71,-0.39,11.62,11.62,11.62
-9.58,1.78,-0.33,11.06,11.06,11.06
-9.54,1.73,-0.22,9.59,9.59,9.59
-9.48,1.70,-0.10,6.72,6.72,6.72
-9.51,1.65,0.00,4.41,3.99,3.99
-9.56,1.59,0.11,2.03,0.77,0.77
-9.73,1.53,0.24,-2.17,-2.66,-2.66
-9.88,1.56,0.39,-7.63,-7.63,-8.05
-9.82,1.58,0.44,-10.85,-11.97,-12.53
-9.73,1.56,0.50,-15.05,-15.05,-16.59
-9.60,1.52,0.51,-18.62,-18.62,-18.97
-9.58,1.55,0.54,-21.00,-21.00,-21.00
-9.62,1.55,0.54,-22.12,-22.12,-22.12
-9.64,1.52,0.47,-22.54,-22.54,-22.61
-9.82,1.37,0.43,-21.84,-21.84,-21.84
-9.95,1.21,0.42,-19.18,-18.69,-18.69
-10.03,1.13,0.43,-15.19,-14.56,-14.56
-10.06,1.06,0.44,-10.99,-10.50,-10.50
-10.07,1.19,0.52,-5.88,-5.88,-5.46
-10.01,1.39,0.57,-2.52,-2.52,-2.52
-9.83,1.58,0.64,0.77,0.91,0.91
-9.71,1.69,0.66,2.17,2.94,2.94
-9.54,1.71,0.68,4.06,4.27,4.69
-9.30,1.73,0.67,5.74,6.02,6.02
-9.13,1.80,0.69,6.58,6.72,6.72
-8.93,1.77,0.69,6.09,6.09,5.95
-8.87,1.63,0.74,5.60,5.60,5.53
-8.92,1.55,0.77,5.39,5.39,5.39
-9.19,1.49,0.91,4.97,4.97,4.97
-9.64,1.35,1.00,5.04,5.04,5.04
-10.03,1.14,1.04,6.79,6.79,6.79
-10.45,1.05,1.10,9.24,9.24,9.24
-10.64,1.10,1.15,12.53,12.53,12.53
-10.61,1.15,1.14,14.07,14.63,14.63
-10.43,1.16,1.10,16.45,16.45,16.45
-10.13,1.20,1.00,17.92,18.06,18.06
-9.69,1.27,0.92,18.06,17.78,17.78
-9.27,1.29,0.84,17.01,16.87,16.31
-9.00,1.28,0.79,15.05,14.70,14.21
-8.84,1.23,0.77,12.60,12.39,11.62
-8.79,1.19,0.87,10.08,9.66,9.03
-8.87,1.17,0.93,7.21,6.79,6.79
-9.12,1.27,0.96,2.45,1.82,1.82
-9.50,1.27,1.00,-2.45,-2.45,-3.01
-9.81,1.26,1.03,-5.39,-6.16,-6.58
-10.18,1.18,1.06,-8.05,-8.26,-8.26
-10.34,1.12,1.06,-9.10,-9.10,-9.10
-10.33,1.15,0.96,-8.82,-8.82,-8.82
-10.33,1.17,0.89,-7.91,-7.91,-7.84
-10.34,1.18,0.81,-6.02,-6.02,-5.74
-10.31,1.17,0.80,-3.92,-3.22,-2.73
-10.19,1.22,0.78,-0.49,0.42,0.70
-10.10,1.24,0.78,2.59,2.59,3.43
-10.02,1.20,0.79,4.69,4.69,5.25
-9.91,1.14,0.87,6.23,6.23,6.30
-9.84,1.01,0.93,7.70,7.70,7.70
-9.74,0.89,0.99,8.26,8.26,8.33
-9.64,0.79,1.00,7.35,7.35,7.35
-9.49,0.78,1.00,6.23,6.23,6.23
-9.25,0.77,1.03,4.97,4.55,4.55
-8.83,0.70,0.91,-2.94,-3.29,-3.29
-8.94,0.62,0.90,-5.39,-5.39,-5.39
-9.15,0.56,0.84,-6.65,-6.65,-6.65
-9.58,0.55,0.83,-7.14,-7.14,-7.14
-10.05,0.53,0.82,-6.79,-6.79,-6.79
-10.34,0.48,0.81,-5.60,-5.25,-5.25
-10.68,0.50,0.89,-3.43,-3.43,-2.45
-10.85,0.60,1.01,-0.56,-0.56,0.70
-10.84,0.70,1.10,2.87,2.87,4.20
-10.66,0.78,1.16,7.42,7.42,7.84
-10.36,0.83,1.21,10.92,10.92,10.92
-9.98,0.92,1.18,13.02,13.65,13.65
-9.65,0.96,1.18,14.98,15.12,15.12
-9.33,0.99,1.20,15.68,15.68,15.54
-9.10,0.98,1.18,14.42,14.42,14.42
-9.08,0.95,1.18,12.18,12.18,12.18
-9.16,0.83,1.18,8.82,8.47,8.47
-9.36,0.76,1.09,6.02,5.60,5.60
-9.49,0.69,0.97,1.19,1.19,0.70
-9.67,0.60,0.86,-1.68,-2.59,-3.08
-9.86,0.46,0.70,-5.88,-5.88,-5.88
-10.17,0.43,0.57,-9.66,-10.01,-10.01
-10.39,0.32,0.51,-11.69,-11.97,-11.97
-10.62,0.34,0.55,-12.67,-12.67,-12.67
-10.73,0.38,0.58,-12.11,-11.69,-11.48
-10.58,0.39,0.66,-9.87,-9.10,-8.75
-10.22,0.48,0.78,-6.02,-5.60,-5.60
-9.83,0.63,0.87,-1.54,-1.54,-1.19
-9.37,0.77,1.01,1.26,1.26,1.54
-8.97,0.84,1.03,2.87,2.87,2.87
-8.83,0.81,1.11,4.27,4.27,4.34
-8.81,0.79,1.09,5.32,5.32,5.32
-9.04,0.72,1.08,5.46,5.46,5.46
-9.30,0.67,1.02,4.76,4.55,4.55
-9.59,0.62,0.90,3.50,3.29,3.29
-9.92,0.61,0.76,1.47,1.47,1.47
-10.13,0.66,0.71,-0.28,-0.28,-0.49
-10.26,0.76,0.61,-2.03,-2.03,-2.31
-10.32,0.79,0.56,-3.43,-3.43,-3.43
-10.26,0.89,0.48,-3.99,-3.99,-3.99
-10.18,1.00,0.53,-4.06,-4.06,-4.06
-9.94,1.07,0.58,-3.57,-3.57,-3.57
-9.65,1.02,0.64,-2.45,-2.24,-2.24
-9.49,0.93,0.70,-1.26,-0.70,-0.70
-9.42,0.93,0.80,0.56,0.63,0.63
-9.48,0.89,0.85,0.84,0.91,0.91
-9.55,0.79,0.86,0.84,0.84,0.70
-9.64,0.69,0.78,0.35,0.35,0.35
-9.90,0.57,0.67,-0.84,-0.84,-0.84
-10.15,0.50,0.59,-1.82,-2.10,-2.10
-10.35,0.44,0.41,-3.64,-3.64,-3.78
-10.37,0.45,0.38,-5.60,-5.60,-5.67
-10.23,0.36,0.38,-7.14,-7.21,-7.21
-10.05,0.29,0.41,-7.49,-7.49,-7.28
-9.78,0.23,0.49,-6.51,-6.51,-6.30
-9.57,0.24,0.57,-4.55,-4.55,-3.99
-9.46,0.26,0.67,-2.45,-2.45,-2.45
-9.43,0.35,0.81,-0.14,-0.14,-0.14
-9.46,0.33,0.87,1.40,1.40,1.68
-9.51,0.32,0.89,4.55,4.55,4.55
-9.66,0.34,0.94,6.93,7.21,7.21
-9.75,0.39,0.95,8.96,9.31,9.45
-9.82,0.49,0.96,10.01,10.01,10.08
-9.83,0.56,0.91,9.94,9.94,9.94
-9.82,0.67,0.93,8.96,8.40,8.12
-9.75,0.75,0.86,6.86,6.86,5.88
-9.68,0.79,0.81,4.34,4.34,4.06
-9.70,0.79,0.77,1.54,0.98,0.56
-9.73,0.76,0.74,-1.12,-1.12,-2.24
-9.77,0.77,0.76,-4.34,-4.34,-4.34
-9.85,0.70,0.77,-6.58,-6.58,-6.79
-9.84,0.62,0.80,-7.56,-7.56,-7.56
-9.84,0.51,0.76,-7.42,-7.42,-7.42
-9.82,0.50,0.79,-6.72,-6.72,-6.72
-9.77,0.51,0.76,-6.16,-6.16,-6.09
-9.70,0.46,0.75,-5.88,-5.88,-5.88
-9.73,0.39,0.70,-5.32,-5.18,-4.90
-9.73,0.28,0.75,-4.13,-3.85,-3.85
-9.83,0.26,0.80,-2.24,-1.96,-1.96
-9.94,0.22,0.85,-0.70,-0.56,-0.56
-10.04,0.26,0.89,0.42,0.84,0.84
-10.01,0.22,0.96,1.82,2.03,2.52
-10.00,0.24,1.04,3.29,3.57,3.57
-9.92,0.32,1.12,4.97,5.11,5.11
-9.79,0.35,1.17,5.53,5.53,5.53
-9.75,0.40,1.17,5.53,5.53,5.46
-9.70,0.43,1.14,5.04,5.04,4.97
-9.72,0.44,1.14,4.48,4.48,4.48
-9.81,0.44,1.12,3.85,3.85,3.85
-9.83,0.48,1.11,3.50,3.50,3.50
-9.86,0.52,1.08,3.01,2.87,2.87
-9.83,0.54,1.09,2.17,1.89,1.75
-9.67,0.62,1.04,1.12,0.77,0.49
-9.59,0.63,1.02,-0.42,-0.70,-0.77
-9.56,0.61,1.02,-1.61,-1.61,-1.61
-9.67,0.59,1.04,-2.03,-2.03,-2.03
-9.76,0.55,1.01,-2.45,-2.45,-2.45
-9.88,0.55,1.02,-2.31,-2.38,-2.38
-9.92,0.58,1.02,-2.10,-2.10,-2.10
-9.89,0.60,1.00,-1.54,-1.54,-1.54
-9.87,0.58,0.91,-1.12,-1.12,-1.12
-9.81,0.61,0.91,-0.63,-0.63,-0.63
-9.74,0.63,0.91,-0.49,-0.49,-0.49
-9.72,0.62,0.86,-0.77,-0.63,-0.63
-9.74,0.58,0.84,-0.91,-0.77,-0.77
-9.77,0.54,0.83,-1.05,-1.12,-1.12
-9.74,0.53,0.81,-1.61,-1.61,-1.61
-9.72,0.47,0.80,-2.10,-2.52,-2.45
-9.74,0.43,0.78,-3.29,-3.78,-3.92
-9.73,0.44,0.70,-5.39,-5.39,-5.39
-9.74,0.37,0.64,-7.35,-7.63,-7.63
-9.76,0.34,0.63,-8.75,-9.03,-9.03
-9.83,0.29,0.62,-10.99,-11.13,-11.13
-9.91,0.24,0.67,-12.39,-12.60,-12.60
-9.96,0.22,0.69,-13.30,-13.44,-13.44
-9.96,0.24,0.76,-14.84,-14.84,-14.91
-10.02,0.23,0.80,-15.96,-15.96,-15.96
-9.96,0.24,0.82,-16.66,-16.66,-16.66
-9.83,0.24,0.85,-17.01,-17.01,-17.08
-9.85,0.27,0.87,-17.29,-17.29,-17.29
-9.82,0.36,0.90,-17.50,-17.50,-17.50
-9.88,0.56,0.93,-18.62,-18.69,-18.69
-9.88,0.60,0.92,-18.69,-18.62,-18.69
-9.79,0.76,0.99,-18.20,-18.20,-18.13
-9.70,0.93,0.97,-17.99,-17.99,-17.99
-9.61,1.01,0.93,-18.20,-18.27,-18.27
-9.53,1.10,0.89,-18.48,-18.41,-18.41
-9.43,1.10,0.86,-18.34,-18.34,-18.20
-9.34,1.05,0.74,-17.92,-17.92,-17.64
-9.37,1.00,0.68,-16.80,-16.80,-16.80
-9.54,0.93,0.64,-15.33,-15.33,-15.33
-9.74,0.87,0.57,-14.21,-14.21,-14.21
-9.93,0.84,0.55,-13.72,-13.72,-13.72
-10.14,0.76,0.52,-13.09,-13.09,-12.95
-10.20,0.69,0.49,-12.46,-12.32,-12.25
-10.34,0.62,0.48,-12.04,-12.04,-11.90
-10.34,0.60,0.48,-11.97,-11.97,-11.97
-10.26,0.57,0.50,-12.25,-12.25,-12.25
-10.20,0.61,0.61,-12.88,-12.88,-12.88
-10.02,0.62,0.67,-13.16,-13.16,-13.30
-9.84,0.63,0.83,-13.02,-13.02,-12.88
-9.63,0.65,0.95,-12.04,-12.04,-11.76
-9.44,0.71,1.00,-10.64,-10.64,-10.64
-9.41,0.74,1.16,-8.96,-8.68,-8.68
-9.34,0.85,1.24,-7.28,-7.07,-7.07
-9.29,0.88,1.30,-4.76,-4.76,-4.48
-9.31,0.89,1.30,-2.94,-2.94,-2.94
-9.33,0.91,1.28,-0.77,-0.77,-0.77
-9.41,0.94,1.19,0.98,1.12,1.12
-9.60,0.95,1.15,2.03,2.52,2.52
-9.78,0.97,1.10,3.15,3.29,3.57
-9.91,0.94,0.98,3.43,3.36,3.36
-9.93,0.89,0.89,2.87,2.87,2.73
-10.00,0.75,0.85,1.19,1.05,0.98
-10.01,0.72,0.86,0.63,0.63,0.49
-10.05,0.68,0.86,0.28,0.28,0.28
-10.10,0.67,0.90,0.42,0.42,0.42
-10.10,0.71,0.94,1.05,1.05,1.05
-9.93,0.70,0.97,2.17,2.17,2.17
-9.75,0.71,0.96,3.78,3.78,3.78
-9.59,0.74,0.96,5.60,5.60,5.60
-9.51,0.87,0.95,7.63,7.63,7.63
-9.48,0.96,0.95,8.19,8.47,8.47
-9.53,1.00,0.97,8.75,8.75,8.68
-9.54,1.06,0.95,8.68,8.68,8.68
-9.55,1.08,0.92,8.33,8.40,8.40
-9.55,0.98,0.79,7.49,7.56,7.56
-9.58,0.87,0.74,7.14,7.14,7.00
-9.64,0.68,0.73,6.44,6.44,6.44
-9.82,0.49,0.69,6.16,6.02,6.02
-10.03,0.36,0.71,5.88,5.81,5.81
-10.26,0.28,0.74,6.37,6.37,6.37
-10.35,0.33,0.78,7.70,7.70,7.70
-10.33,0.41,0.78,8.68,8.68,8.68
-10.22,0.57,0.77,8.82,8.82,8.82
-9.58,0.82,0.65,7.49,7.28,7.28
-9.36,0.89,0.56,5.25,5.25,5.11
-9.22,0.91,0.48,3.57,3.57,3.29
-9.27,0.86,0.50,1.26,1.26,1.26
-10.02,0.48,0.95,-4.55,-4.55,-4.69
-10.09,0.36,1.03,-4.97,-5.32,-5.25
-10.03,0.30,1.07,-5.60,-5.74,-5.74
-9.97,0.22,1.09,-5.46,-5.46,-5.25
-9.80,0.21,1.09,-4.20,-4.20,-4.06
-9.70,0.25,1.12,-1.82,-1.82,-1.82
-9.67,0.30,1.17,0.42,0.42,0.42
-9.69,0.33,1.19,2.24,2.66,2.66
-9.69,0.36,1.20,4.76,4.76,5.18
-9.66,0.50,1.25,7.14,7.14,7.28
-9.61,0.53,1.25,8.26,8.26,8.26
-9.51,0.58,1.25,8.68,8.75,8.75
-9.53,0.59,1.20,8.89,8.89,8.89
-9.53,0.52,1.10,8.82,8.82,8.82
-9.63,0.48,1.05,8.54,8.68,8.68
-9.69,0.41,0.99,8.12,8.12,8.12
-9.79,0.36,0.91,7.49,7.49,7.49
-9.83,0.37,0.82,6.37,6.37,6.37
-9.93,0.35,0.79,5.81,5.81,5.81
-9.93,0.37,0.79,6.02,6.09,6.09
-9.93,0.39,0.81,6.86,7.00,7.00
-9.88,0.50,0.88,8.82,8.82,9.03
-9.74,0.61,0.98,10.57,10.57,10.71
-9.58,0.66,1.07,12.60,12.60,12.88
-9.44,0.65,1.11,14.35,14.35,14.35
-9.33,0.71,1.12,14.84,14.91,14.91
-9.41,0.72,1.12,14.28,14.28,14.28
-9.50,0.61,0.97,13.37,13.30,13.30
-9.64,0.45,0.68,12.46,12.46,12.25
-11.01,0.29,0.47,11.55,11.55,11.62
-10.04,0.26,0.35,10.92,10.43,10.29
-10.56,0.27,0.24,8.54,8.54,8.54
-10.91,0.28,0.30,6.37,6.16,6.16
-11.01,0.34,0.38,5.53,5.11,5.11
-10.84,0.45,0.56,4.69,4.69,4.55
-10.41,0.62,0.76,4.34,4.34,4.41
-9.89,0.75,0.94,4.48,4.48,4.48
-9.30,0.83,1.11,5.11,5.18,5.18
-8.89,0.89,1.17,6.44,6.44,6.58
-8.44,0.81,1.30,8.54,8.54,8.54
-8.48,0.73,1.23,8.75,8.75,8.75
-8.79,0.64,1.17,8.47,8.61,8.61
-9.18,0.60,1.00,6.86,6.86,6.72
-9.73,0.55,0.88,5.53,5.11,4.90
-10.64,0.46,0.71,1.54,1.54,1.05
-10.82,0.53,0.68,-0.63,-0.63,-0.63
-10.93,0.61,0.72,-2.24,-2.38,-2.38
-10.83,0.61,0.77,-2.80,-3.01,-3.01
-10.49,0.62,0.78,-2.66,-2.45,-2.17
-10.16,0.67,0.82,-1.05,-0.77,-0.35
-9.76,0.71,0.91,0.77,0.91,1.33
-9.43,0.77,0.96,2.52,2.66,2.66
-9.11,0.79,1.09,4.76,4.90,4.90
-8.98,0.73,1.08,5.88,6.02,6.23
-9.07,0.67,1.07,6.58,6.58,6.86
-9.28,0.58,1.01,6.72,6.72,6.37
-9.52,0.52,1.00,5.95,5.95,5.95
-9.80,0.46,0.92,3.85,3.85,3.57
-10.04,0.41,0.87,1.19,1.19,0.77
-10.19,0.39,0.90,-1.68,-1.68,-1.89
-10.27,0.35,0.87,-3.57,-4.06,-4.20
-10.20,0.31,0.87,-5.18,-5.46,-5.53
-10.05,0.30,0.89,-5.81,-5.81,-5.81
-9.94,0.38,0.96,-5.46,-5.46,-5.32
-9.75,0.55,1.06,-4.83,-4.76,-4.76
-9.66,0.57,1.14,-3.36,-3.36,-3.36
-9.59,0.60,1.16,-1.75,-1.05,-1.05
-9.64,0.56,1.14,1.19,1.47,1.47
-9.69,0.60,1.12,3.92,3.92,4.13
-9.65,0.69,1.14,5.11,5.11,5.25
-9.68,0.68,1.09,6.16,6.16,6.16
-9.65,0.64,1.07,7.35,7.56,7.56
-9.68,0.65,1.13,8.40,8.40,8.40
-9.74,0.69,1.19,9.66,9.66,9.66
-9.81,0.79,1.27,10.50,10.50,10.50
-9.79,0.95,1.34,11.83,11.90,11.90
-9.78,1.12,1.35,12.46,12.53,12.53
-9.78,1.20,1.37,13.02,13.37,13.37
-9.66,1.35,1.34,13.65,13.58,13.79
-9.58,1.45,1.36,14.00,14.00,14.00
-9.57,1.49,1.33,13.93,13.93,13.93
-9.58,1.51,1.26,13.58,13.58,13.44
-9.62,1.51,1.21,12.95,12.60,12.60
-9.65,1.45,1.12,11.55,11.34,11.34
-9.63,1.39,1.04,10.29,10.15,10.15
-9.60,1.31,0.96,8.61,8.61,8.54
-9.69,1.24,0.90,7.21,7.21,6.93
-9.74,1.25,0.84,4.34,4.34,4.34
-9.77,1.22,0.79,2.24,2.24,2.24
-9.77,1.14,0.77,-0.21,-0.21,-0.21
-9.77,0.86,0.76,-1.89,-1.89,-1.82
-9.80,0.79,0.80,-0.63,-0.63,-0.63
-9.89,0.80,0.83,0.49,0.49,0.63
-9.97,0.81,0.90,1.68,1.68,1.96
-9.91,0.82,0.97,3.29,3.29,3.29
-9.85,0.78,1.00,4.55,4.55,4.55
-9.73,0.74,1.02,5.74,5.95,5.95
-9.67,0.75,1.03,6.86,6.86,6.86
-9.62,0.79,1.13,7.35,7.28,7.28
-9.61,0.78,1.14,7.14,7.14,7.07
-9.63,0.78,1.21,6.37,6.37,6.23
-9.69,0.79,2.45,5.74,5.74,5.74
-9.71,0.82,1.27,5.04,4.97,4.97
-9.72,0.87,1.31,4.69,4.55,4.55
-9.68,0.93,1.30,3.99,3.99,3.99
-9.59,0.99,1.23,2.38,2.38,2.38
-9.62,1.03,1.20,0.63,0.63,0.63
-9.67,1.03,1.16,-1.61,-1.82,-1.82
-9.72,1.03,1.19,-2.66,-2.87,-3.08
-9.79,1.02,1.25,-3.50,-3.57,-3.57
-9.79,1.05,1.25,-3.99,-3.99,-3.99
-9.64,1.07,1.26,-3.92,-3.92,-3.92
-9.52,1.02,1.09,-3.78,-3.78,-3.78
-9.51,1.00,0.93,-3.99,-3.99,-3.99
-9.59,0.99,0.86,-4.06,-4.06,-4.27
-9.71,0.95,0.78,-4.20,-4.13,-4.13
-9.74,0.91,0.77,-3.64,-3.64,-3.64
-9.83,0.91,0.74,-3.01,-2.66,-2.66
-9.95,0.90,0.70,-1.89,-1.75,-1.61
-10.13,0.89,0.71,-1.05,-1.12,-1.12
-10.23,0.86,0.66,-0.63,-0.63,-0.63
-10.16,0.87,0.63,-0.42,-0.49,-0.49
-9.87,0.94,0.77,-2.10,-2.24,-2.24
-9.52,1.05,0.80,-4.97,-4.97,-5.32
-8.49,1.40,1.07,-10.57,-10.57,-11.83
-8.10,1.59,1.23,-14.49,-14.49,-15.05
-7.88,1.77,1.39,-21.77,-21.77,-22.68
-7.93,1.78,1.51,-29.19,-29.19,-29.19
-8.15,1.62,1.64,-41.09,-41.09,-41.09
-8.26,1.36,1.68,-52.36,-53.13,-53.13
-8.40,1.22,1.65,-57.40,-57.89,-57.89
-8.58,1.17,1.57,-60.90,-61.46,-61.46
-8.65,1.14,1.56,-66.85,-66.85,-67.55
-8.68,1.18,1.65,-70.56,-70.70,-70.70
-8.73,1.31,1.83,-70.14,-70.14,-70.14
-8.91,1.67,2.06,-68.67,-68.67,-68.67
-8.98,2.17,2.58,-69.51,-69.51,-69.51
-9.11,2.52,3.19,-72.59,-72.59,-72.59
-9.19,2.66,3.53,-74.27,-74.27,-74.27
-8.96,2.75,3.91,-77.91,-77.91,-78.47
-8.37,2.85,4.20,-80.57,-80.57,-80.57
-7.59,3.02,4.42,-80.85,-80.78,-80.78
-7.04,3.36,4.79,-79.73,-79.73,-79.59
-6.30,3.79,5.38,-78.96,-78.96,-79.03
-5.58,3.84,5.67,-79.80,-79.80,-79.87
-4.91,3.79,5.94,-80.15,-80.15,-80.08
-3.67,3.64,6.07,-80.22,-80.22,-80.01
-2.75,3.45,6.29,-76.30,-76.30,-76.30
-2.10,3.29,6.81,-68.60,-68.60,-68.60
-2.00,3.28,7.32,-60.83,-60.83,-60.83
-2.07,3.31,7.58,-51.24,-51.24,-51.24
-2.10,3.40,7.63,-46.83,-46.83,-46.83
-1.28,3.39,7.87,-43.33,-43.33,-43.33
-0.07,2.71,7.81,-29.75,-29.75,-29.75
-0.09,2.24,7.36,-21.63,-21.63,-21.63
0.70,2.42,7.52,-14.98,-14.98,-14.98
2.04,2.92,7.61,-15.89,-15.89,-16.59
2.66,2.95,7.49,-18.41,-18.41,-18.90
2.99,2.33,7.21,-19.32,-19.32,-19.11
4.28,2.21,6.99,-18.27,-18.27,-18.27
5.49,2.09,6.82,-20.79,-20.79,-20.79
6.87,1.87,6.86,-19.81,-19.81,-19.81
7.16,1.42,6.90,-11.34,-9.38,-9.38
7.99,1.57,7.21,-5.74,-5.74,-5.74
8.33,1.80,7.31,-8.54,-8.54,-8.54
8.32,1.53,7.20,-9.24,-8.96,-8.96
9.08,1.23,6.80,-6.37,-6.37,-5.74
9.62,1.14,6.05,-2.45,-2.45,-2.45
10.42,0.93,5.59,-2.38,-2.38,-2.38
9.54,0.69,4.60,5.39,5.39,6.09
10.13,0.85,4.05,7.35,7.35,7.35
9.75,0.76,3.70,6.30,6.23,6.23
8.89,0.55,2.82,7.21,7.21,7.42
10.23,0.28,1.22,3.01,3.01,3.01
13.49,-0.17,0.74,8.89,8.89,9.45
14.76,-0.21,0.69,18.69,18.69,18.69
15.85,-0.07,-0.02,36.89,37.87,37.87
15.92,-0.16,-0.89,42.28,42.63,42.63
15.48,-0.06,-1.18,43.89,43.89,43.89
15.43,0.08,-1.39,43.26,43.26,43.26
16.10,0.32,-1.53,40.60,40.60,40.60
16.76,0.51,-1.63,37.73,36.68,36.68
16.15,0.76,-1.41,34.30,33.81,33.81
14.40,0.97,-0.89,32.83,32.83,32.62
12.25,0.88,-0.27,31.99,31.99,31.99
10.25,0.84,0.23,30.38,30.38,29.96
8.70,0.86,0.67,26.32,26.32,26.32
7.42,0.89,0.89,22.33,22.33,22.33
6.36,0.78,1.06,18.20,18.20,18.20
5.39,0.66,1.23,14.98,14.98,14.98
4.80,0.53,1.41,12.04,12.04,12.04
4.32,0.45,1.44,10.92,10.92,10.92
3.94,0.41,1.44,10.22,9.80,9.80
4.75,0.26,0.94,6.44,6.44,6.44
6.19,0.07,0.47,2.66,2.66,2.66
7.73,-0.17,0.42,0.56,-0.42,-0.42
10.27,-0.46,0.41,-3.22,-3.22,-4.06
13.09,-1.10,0.09,-5.81,-5.81,-5.81
15.85,-1.56,-0.14,-6.02,-6.02,-6.02
18.12,-1.19,-0.01,-2.52,-2.52,-1.82
18.55,-0.36,-0.58,0.63,0.63,0.63
17.04,-0.42,-0.72,-0.42,-0.42,-0.42
15.42,-0.48,-1.18,-0.28,-0.28,-0.28
14.64,-0.39,-1.92,1.19,2.10,2.10
13.36,-0.84,-2.46,6.65,7.35,7.35
11.39,-1.15,-2.40,15.19,15.19,16.52
9.70,-1.39,-2.22,28.63,28.63,29.89
8.16,-1.41,-1.89,38.15,38.15,38.15
6.89,-1.27,-1.55,44.24,45.99,45.99
5.53,-0.83,-1.11,51.24,51.87,51.87
4.32,-0.57,-0.29,55.44,55.44,55.44
3.19,-0.44,0.22,56.42,56.42,56.42
3.00,-0.35,0.45,55.93,55.93,55.72
3.65,-0.27,0.40,54.32,54.04,54.04
5.29,-0.16,0.26,48.65,48.65,47.67
7.54,-0.12,0.23,39.90,39.90,39.90
9.95,0.06,0.21,31.29,28.00,28.00
11.85,0.25,0.00,14.14,14.14,14.14
13.39,0.24,-0.31,2.24,2.24,2.24
14.11,0.12,-0.71,-12.81,-12.81,-12.81
14.28,0.12,-1.00,-20.37,-22.40,-22.40
14.27,0.23,-1.83,-28.70,-28.70,-29.54
13.57,0.29,-2.48,-34.51,-34.51,-34.51
11.92,0.10,-2.35,-35.91,-35.91,-35.91
10.42,-0.16,-1.82,-35.28,-35.28,-35.07
9.12,-0.23,-1.60,-34.23,-34.23,-33.67
7.69,-0.23,-1.20,-33.25,-33.25,-33.25
6.95,-0.24,-0.55,-34.86,-34.86,-34.86
6.59,-0.27,-0.03,-37.80,-37.80,-37.80
6.66,-0.26,0.29,-40.81,-41.79,-41.79
7.06,-0.37,0.52,-45.36,-45.36,-46.55
7.68,-0.50,0.76,-50.96,-50.96,-50.96
8.71,-0.71,0.73,-52.64,-52.64,-52.71
9.67,-0.61,0.74,-53.13,-53.13,-53.13
10.38,-0.55,0.47,-53.34,-53.34,-53.34
11.02,-0.47,0.26,-54.04,-54.39,-54.39
11.39,-0.61,-0.12,-55.30,-55.23,-55.23
11.17,-0.99,-0.39,-54.04,-53.20,-52.71
10.97,-1.47,-0.63,-49.49,-49.49,-47.04
11.07,-1.66,-0.76,-42.63,-42.63,-41.72
10.91,-1.66,-0.67,-35.21,-35.21,-34.23
10.65,-1.71,-0.61,-26.74,-26.74,-25.97
10.33,-1.75,-0.52,-21.63,-21.63,-21.63
10.12,-1.75,-0.40,-17.29,-16.59,-16.59
9.84,-1.70,-0.18,-11.69,-11.20,-11.20
9.52,-1.68,-0.08,-7.91,-7.42,-7.42
9.37,-1.66,-0.05,-4.83,-4.48,-4.48
9.32,-1.60,-0.04,-2.94,-2.24,-2.24
9.38,-1.66,-0.13,-0.63,-0.63,-0.63
9.59,-1.75,-0.29,2.03,2.45,2.45
9.83,-1.84,-0.40,5.32,5.81,5.81
10.21,-1.89,-0.46,8.82,9.38,9.38
10.42,-1.96,-0.62,15.05,15.05,15.75
10.55,-1.92,-0.66,19.04,20.37,21.00
10.52,-1.87,-0.76,24.92,24.92,24.92
10.42,-1.81,-0.74,28.84,29.19,29.19
10.32,-1.71,-0.79,31.22,31.50,31.50
10.23,-1.61,-0.80,33.39,33.39,33.46
10.13,-1.56,-0.79,34.30,34.37,34.51
10.16,-1.55,-0.87,35.14,35.28,35.28
10.05,-1.55,-0.85,36.75,36.75,37.03
9.78,-1.46,-0.80,38.08,38.08,38.22
9.69,-1.44,-0.82,38.85,38.85,38.85
9.65,-1.45,-0.83,38.43,38.43,38.43
9.65,-1.45,-0.81,38.29,38.36,38.36
9.54,-1.47,-0.79,38.71,38.71,38.85
9.48,-1.57,-0.85,40.60,40.60,40.60
9.46,-1.57,-0.92,42.84,42.84,42.84
9.42,-1.55,-0.94,44.52,44.94,44.94
9.44,-1.53,-0.99,46.48,46.97,46.97
9.40,-1.50,-1.00,48.09,48.09,48.37
9.37,-1.38,-1.00,50.26,50.26,50.26
9.49,-1.29,-1.01,50.96,50.82,50.82
9.68,-1.26,-1.06,50.96,50.82,50.82
9.73,-1.16,-1.10,50.68,50.68,50.54
9.67,-0.91,-1.11,49.98,49.84,49.84
9.57,-0.58,-1.13,47.60,47.60,47.11
9.64,-0.20,-1.14,42.28,42.28,41.72
9.63,0.21,-1.07,37.03,37.03,36.26
9.68,0.51,-1.02,31.22,31.22,30.38
9.68,0.92,-0.91,19.95,19.95,19.95
9.72,0.99,-0.87,8.75,8.75,8.75
9.87,0.82,-0.80,-0.70,-2.03,-2.03
9.94,0.46,-0.80,-12.11,-12.11,-13.02
9.96,0.10,-0.79,-17.15,-18.55,-19.18
9.96,-0.22,-0.79,-22.12,-22.12,-23.03
9.87,-0.56,-0.73,-25.55,-25.55,-26.25
9.82,-0.90,-0.78,-27.51,-27.51,-27.51
9.70,-1.17,-0.84,-27.65,-27.65,-27.44
9.58,-1.37,-0.84,-26.39,-26.39,-26.04
9.49,-1.45,-0.78,-23.59,-23.59,-23.59
9.51,-1.47,-0.80,-20.86,-20.51,-20.51
9.56,-1.47,-0.80,-19.18,-18.27,-18.27
9.52,-1.51,-0.78,-16.03,-16.03,-16.03
9.45,-1.51,-0.75,-12.67,-12.67,-12.67
9.50,-1.55,-0.72,-10.50,-10.50,-10.50
9.63,-1.53,-0.73,-9.03,-9.03,-9.03
9.71,-1.52,-0.75,-6.86,-6.72,-6.72
9.82,-1.54,-0.74,-5.18,-4.97,-4.97
9.86,-1.56,-0.78,-2.87,-2.59,-2.59
9.79,-1.58,-0.81,0.00,0.00,0.21
9.82,-1.55,-0.82,1.47,1.89,2.17
9.84,-1.56,-0.86,3.15,3.15,3.29
9.88,-1.51,-0.86,5.04,5.04,5.04
9.93,-1.46,-0.89,6.58,6.58,6.58
9.94,-1.42,-0.89,7.49,7.49,7.49
9.89,-1.36,-0.88,8.19,8.19,8.19
9.78,-1.32,-0.83,8.40,8.40,8.40
9.81,-1.29,-0.86,8.26,8.26,8.19
9.76,-1.27,-0.84,8.26,8.26,8.26
9.73,-1.24,-0.88,8.54,8.54,8.54
9.77,-1.17,-0.90,8.26,8.26,8.26
9.82,-1.19,-0.94,7.63,7.63,7.63
9.82,-1.19,-1.00,7.21,7.21,7.21
9.74,-1.18,-0.97,6.93,6.72,6.72
9.81,-1.17,-1.00,6.16,6.16,6.02
9.84,-1.15,-1.05,5.39,5.39,5.39
9.82,-1.14,-1.02,4.76,4.55,4.55
9.92,-1.17,-1.09,3.92,3.92,3.92
9.98,-1.17,-1.12,3.08,3.08,3.01
10.00,-1.14,-1.14,1.75,1.75,1.47
9.99,-1.12,-1.12,0.14,0.14,0.14
10.01,-1.07,-1.11,-1.82,-1.82,-1.82
9.93,-1.08,-1.09,-3.22,-3.22,-3.22
9.75,-1.09,-1.03,-4.34,-4.34,-4.34
9.60,-1.07,-0.98,-5.39,-5.39,-5.46
9.49,-1.08,-0.99,-7.07,-7.07,-7.07
9.54,-1.13,-1.03,-7.91,-8.05,-8.05
9.53,-1.17,-1.04,-8.33,-8.33,-8.19
9.47,-1.24,-1.03,-7.84,-7.84,-7.63
9.48,-1.29,-1.05,-7.14,-7.14,-7.14
9.48,-1.32,-1.05,-6.44,-6.44,-6.44
9.51,-1.36,-1.04,-5.11,-5.11,-5.11
9.63,-1.36,-1.06,-3.99,-3.99,-3.99
9.64,-1.35,-1.04,-2.38,-2.38,-1.96
9.69,-1.40,-1.06,-0.63,-0.63,-0.63
9.72,-1.39,-1.09,1.12,1.12,1.12
9.72,-1.35,-1.09,2.59,2.59,2.59
9.69,-1.34,-1.08,3.71,3.71,3.71
9.67,-1.30,-1.07,3.85,3.85,3.85
9.57,-1.27,-1.04,3.78,3.92,3.92
9.55,-1.27,-1.07,3.85,3.85,3.85
9.58,-1.25,-1.07,3.57,3.57,3.57
9.59,-1.23,-1.10,2.66,2.66,2.45
9.66,-1.23,-1.11,1.68,1.68,1.68
9.76,-1.26,-1.12,1.05,1.05,1.05
9.77,-1.28,-1.13,0.77,0.77,0.56
9.75,-1.27,-1.09,0.07,0.07,0.14
9.78,-1.25,-1.07,-1.61,-1.68,-1.68
9.69,-1.24,-1.04,-1.89,-1.89,-1.82
9.70,-1.26,-1.05,-2.17,-2.17,-2.24
9.64,-1.26,-1.06,-2.52,-2.52,-2.52
9.66,-1.21,-1.04,-2.45,-2.38,-2.38
9.55,-1.21,-1.03,-2.66,-2.66,-2.59
9.63,-1.22,-1.05,-2.80,-2.94,-2.94
9.71,-1.23,-1.10,-3.29,-3.29,-3.36
9.83,-1.25,-1.12,-3.15,-3.15,-3.15
9.82,-1.28,-1.08,-2.66,-2.66,-2.66
9.76,-1.27,-1.11,-2.10,-2.10,-2.10
9.72,-1.33,-1.06,-1.68,-1.68,-1.54
9.60,-1.33,-1.04,-0.98,-0.98,-0.91
9.56,-1.31,-1.00,0.00,0.00,0.00
9.60,-1.31,-1.01,0.56,0.91,0.91
9.66,-1.34,-1.06,1.47,1.47,1.47
9.69,-1.37,-1.09,2.73,2.73,2.73
9.64,-1.37,-1.09,3.57,3.57,3.57
9.63,-1.34,-1.06,4.13,4.20,4.20
9.64,-1.32,-1.09,4.41,4.41,4.55
9.67,-1.35,-1.12,4.62,4.62,4.62
9.68,-1.35,-1.11,5.18,5.18,5.18
9.75,-1.34,-1.13,5.67,5.67,5.67
9.77,-1.36,-1.10,6.09,6.09,6.09
9.72,-1.33,-1.10,6.65,6.72,6.72
9.68,-1.36,-1.08,7.14,7.14,7.28
9.72,-1.35,-1.11,7.63,7.63,7.63
9.76,-1.32,-1.13,7.91,7.91,7.91
9.73,-1.28,-1.13,8.19,8.19,8.19
9.68,-1.28,-1.14,8.12,8.12,8.12
9.71,-1.27,-1.10,7.70,7.70,7.63
9.68,-1.25,-1.12,7.35,7.35,7.14
9.63,-1.26,-1.10,6.51,6.51,6.44
9.78,-1.26,-1.15,5.60,5.60,5.60
9.74,-1.24,-1.13,4.34,4.34,4.34
9.66,-1.27,-1.13,3.50,3.50,3.50
9.63,-1.27,-1.16,2.03,1.96,1.96
9.67,-1.28,-1.21,0.84,0.70,0.70
9.65,-1.30,-1.20,-0.49,-0.49,-0.49
9.60,-1.32,-1.15,-1.61,-1.68,-1.68
9.56,-1.34,-1.16,-2.59,-2.66,-2.66
9.53,-1.33,-1.14,-3.22,-3.43,-3.57
9.59,-1.38,-1.12,-4.27,-4.20,-4.20
9.66,-1.41,-1.16,-4.97,-4.97,-4.97
9.72,-1.44,-1.16,-5.04,-4.97,-4.97
9.65,-1.44,-1.17,-5.11,-5.11,-5.04
9.60,-1.47,-1.14,-4.90,-4.90,-4.90
9.57,-1.47,-1.12,-4.69,-4.48,-4.48
9.60,-1.54,-1.09,-1.19,-1.19,-1.19
9.72,-1.57,-1.11,0.14,0.42,0.42
9.73,-1.57,-1.09,2.24,2.24,2.45
9.80,-1.55,-1.12,3.43,3.43,3.92
9.82,-1.55,-1.14,4.97,4.97,4.97
9.83,-1.54,-1.12,6.16,6.16,6.16
9.76,-1.52,-1.08,7.07,7.07,7.07
9.80,-1.46,-1.02,8.19,8.19,8.19
9.80,-1.46,-1.03,8.82,9.03,9.03
9.84,-1.46,-1.00,9.45,9.45,9.59
9.82,-1.44,-0.99,10.15,10.15,10.29
9.75,-1.43,-1.00,10.64,10.71,10.71
9.72,-1.37,-1.00,10.71,10.71,10.71
9.68,-1.35,-0.99,10.71,10.64,10.64
9.68,-1.33,-1.00,10.57,10.57,10.43
9.74,-1.33,-1.06,10.08,10.08,9.94
9.79,-1.35,-1.10,9.59,9.59,9.52
9.85,-1.34,-1.12,9.31,9.31,9.38
9.81,-1.35,-1.12,9.38,9.38,9.38
9.76,-1.34,-1.12,9.45,9.45,9.45
9.66,-1.32,-1.11,9.10,8.96,8.89
9.69,-1.34,-1.11,8.61,8.61,8.61
9.67,-1.34,-1.11,8.26,8.19,8.19
9.69,-1.35,-1.11,8.12,8.05,8.05
9.74,-1.38,-1.14,7.91,7.91,7.84
9.72,-1.42,-1.18,7.84,7.84,7.84
9.75,-1.44,-1.17,7.91,7.91,7.91
9.58,-1.44,-1.14,7.49,7.42,7.42
9.52,-1.41,-1.17,6.65,6.65,6.65
9.67,-1.46,-1.21,5.95,5.95,5.95
9.64,-1.46,-1.19,5.60,5.60,5.60
9.60,-1.46,-1.21,5.39,5.32,5.32
9.58,-1.47,-1.20,4.69,4.69,4.41
9.61,-1.46,-1.23,3.78,3.78,3.78
9.69,-1.50,-1.28,2.59,2.59,2.59
9.69,-1.51,-1.22,2.10,2.10,2.10
9.56,-1.48,-1.20,1.89,1.89,1.89
9.52,-1.45,-1.14,1.12,1.12,1.12
9.56,-1.44,-1.15,0.77,0.77,0.77
9.55,-1.46,-1.14,0.63,0.63,0.63
9.63,-1.38,-1.17,0.21,0.21,0.21
9.66,-1.33,-1.19,-1.19,-1.19,-1.19
9.70,-1.30,-1.17,-2.38,-2.38,-2.38
9.71,-1.28,-1.23,-3.92,-3.92,-3.92
9.66,-1.28,-1.22,-5.39,-5.60,-5.60
9.66,-1.31,-1.23,-6.65,-6.93,-6.93
9.73,-1.34,-1.27,-8.19,-8.19,-8.96
9.61,-1.33,-1.23,-10.29,-10.29,-10.29
9.48,-1.30,-1.13,-11.90,-11.90,-11.90
9.38,-1.32,-1.13,-12.88,-13.16,-13.16
9.31,-1.34,-1.14,-14.35,-14.35,-14.42
9.35,-1.37,-1.13,-15.54,-15.54,-15.75
9.50,-1.41,-1.22,-16.87,-16.87,-16.87
9.61,-1.45,-1.23,-17.15,-17.15,-17.15
9.68,-1.46,-1.17,-16.59,-16.59,-16.59
9.67,-1.46,-1.14,-15.40,-15.40,-15.19
9.66,-1.45,-1.12,-14.49,-14.21,-14.07
9.69,-1.49,-1.10,-13.30,-13.23,-13.23
9.67,-1.51,-1.09,-11.83,-11.83,-11.83
9.67,-1.50,-1.09,-9.87,-9.59,-9.59
9.69,-1.50,-1.10,-8.05,-7.84,-7.84
9.69,-1.50,-1.12,-6.23,-6.16,-6.16
9.76,-1.49,-1.14,-4.34,-4.34,-4.06
9.62,-1.47,-1.10,-3.08,-3.08,-3.08
9.58,-1.42,-1.05,-2.03,-1.96,-1.96
9.60,-1.41,-1.06,-1.68,-1.54,-1.54
9.60,-1.38,-1.04,-1.40,-1.40,-1.47
9.63,-1.38,-1.07,-1.12,-1.12,-1.12
9.73,-1.39,-1.08,-1.26,-1.26,-1.26
9.85,-1.40,-1.08,-1.05,-1.05,-0.91
9.94,-1.38,-1.08,-0.56,-0.56,-0.56
9.82,-1.39,-0.98,0.49,0.49,0.49
9.58,-1.40,-0.94,1.05,1.05,1.05
9.79,-1.48,-1.26,1.05,1.05,0.84
10.13,-1.50,-1.47,-0.35,-0.35,-0.42
10.30,-1.47,-1.47,-1.26,-1.26,-1.33
9.91,-1.33,-1.21,-1.33,-1.26,-1.26
9.61,-1.24,-0.88,-0.91,-0.91,-0.91
9.34,-1.25,-0.75,-1.12,-1.12,-1.12
9.33,-1.30,-0.76,-1.33,-1.33,-1.33
9.49,-1.33,-0.89,-1.26,-1.26,-1.26
9.71,-1.40,-1.05,-1.12,-1.12,-1.12
9.87,-1.39,-1.24,-1.19,-1.19,-1.26
9.93,-1.38,-1.33,-2.10,-2.10,-2.10
10.00,-1.38,-1.35,-3.01,-3.01,-3.01
9.93,-1.36,-1.29,-3.78,-3.78,-3.92
9.80,-1.35,-1.19,-4.06,-4.06,-4.06
9.73,-1.38,-1.12,-3.92,-3.78,-3.78
9.66,-1.43,-1.15,-3.43,-3.43,-3.36
9.50,-1.38,-1.10,-2.59,-2.59,-2.59
9.40,-1.40,-1.11,-2.10,-2.03,-2.03
9.33,-1.43,-1.08,-0.21,-0.21,0.28
9.42,-1.45,-1.12,1.19,1.19,1.33
9.41,-1.46,-1.11,3.36,3.36,3.50
9.56,-1.52,-1.12,5.39,5.39,5.39
9.67,-1.51,-1.16,7.00,7.00,7.49
9.70,-1.50,-1.14,8.89,9.17,9.17
9.81,-1.45,-1.15,10.22,10.43,10.64
9.79,-1.41,-1.14,11.34,11.34,11.69
9.79,-1.42,-1.14,12.18,12.18,12.39
9.86,-1.36,-1.18,12.88,12.88,12.95
9.76,-1.31,-1.18,13.16,13.16,13.02
9.73,-1.30,-1.17,13.02,13.02,13.02
9.66,-1.26,-1.17,12.18,12.18,12.18
9.68,-1.23,-1.16,11.34,11.34,11.34
9.78,-1.23,-1.21,9.80,9.66,9.66
9.73,-1.20,-1.20,8.12,8.12,8.12
9.77,-1.20,-1.21,6.86,6.23,6.23
9.82,-1.19,-1.24,4.34,4.34,4.13
9.78,-1.21,-1.24,1.75,1.75,1.75
9.79,-1.23,-1.25,0.00,0.00,0.00
9.81,-1.21,-1.27,-1.96,-1.96,-2.45
9.79,-1.25,-1.29,-3.71,-3.71,-3.71
9.68,-1.27,-1.25,-5.81,-5.81,-5.81
9.64,-1.27,-1.26,-6.86,-6.86,-7.21
9.54,-1.29,-1.24,-8.40,-8.40,-8.40
9.52,-1.35,-1.26,-9.94,-10.08,-10.08
9.55,-1.36,-1.25,-10.71,-10.99,-11.06
9.70,-1.43,-1.32,-11.48,-11.55,-11.48
9.68,-1.45,-1.33,-11.48,-11.48,-11.48
9.60,-1.49,-1.31,-11.34,-11.48,-11.41
9.55,-1.49,-1.30,-11.34,-11.48,-11.48
9.53,-1.53,-1.31,-11.20,-11.20,-11.20
9.51,-1.50,-1.29,-10.36,-10.36,-10.36
9.43,-1.52,-1.26,-10.01,-10.01,-10.01
9.50,-1.50,-1.31,-9.66,-9.59,-9.59
9.54,-1.56,-1.28,-8.61,-8.40,-8.19
9.62,-1.55,-1.28,-7.56,-7.35,-7.14
9.66,-1.55,-1.23,-5.95,-5.95,-5.74
9.61,-1.53,-1.19,-3.99,-3.99,-3.99
9.53,-1.49,-1.16,-2.80,-2.66,-2.66
9.55,-1.48,-1.12,-1.61,-1.61,-1.47
9.64,-1.45,-1.13,-0.84,-0.84,-0.77
9.72,-1.43,-1.11,17.85,0.07,0.07
9.76,-1.44,-1.10,1.40,1.40,1.54
9.69,-1.35,-1.07,2.17,2.10,2.10
9.66,-1.34,-1.08,2.24,2.17,2.17
9.70,-1.30,-1.08,1.89,1.82,1.82
9.66,-1.25,-1.04,1.40,1.40,1.19
9.69,-1.25,-1.05,0.77,0.77,0.49
9.70,-1.25,-1.04,-0.14,-0.14,-0.14
9.68,-1.25,-1.04,-1.40,-1.40,-1.40
9.68,-1.28,-1.05,-2.24,-2.24,-2.24
9.78,-1.30,-1.06,-2.94,-2.94,-2.94
9.81,-1.35,-1.06,-3.36,-3.36,-3.36
9.85,-1.36,-1.12,-3.78,-3.71,-3.71
9.87,-1.42,-1.16,-3.99,-3.99,-3.99
9.97,-1.45,-1.20,-4.13,-4.13,-4.13
9.79,-1.45,-1.16,-3.92,-3.92,-3.92
9.82,-1.45,-1.19,-4.20,-4.13,-4.13
9.80,-1.47,-1.21,-4.34,-4.20,-4.20
9.79,-1.49,-1.22,-4.20,-4.20,-4.06
9.74,-1.54,-1.22,-3.64,-3.57,-3.57
9.69,-1.54,-1.22,-2.94,-2.94,-2.87
9.58,-1.53,-1.20,-2.31,-2.31,-2.31
9.49,-1.54,-1.18,-1.96,-1.75,-1.75
9.47,-1.56,-1.18,-1.19,-1.12,-1.12
9.55,-1.59,-1.21,-0.42,-0.35,-0.35
9.67,-1.63,-1.23,1.33,1.33,1.61
9.65,-1.64,-1.20,3.01,3.36,3.36
9.61,-1.64,-1.21,5.18,5.18,5.39
9.60,-1.62,-1.22,6.44,6.44,6.51
9.54,-1.58,-1.20,7.28,7.28,7.63
9.57,-1.57,-1.21,8.19,8.19,8.26
9.57,-1.56,-1.23,9.03,9.03,9.17
9.67,-1.54,-1.25,9.52,9.52,9.66
9.66,-1.57,-1.24,10.50,10.50,10.50
9.67,-1.54,-1.26,11.13,11.20,11.20
9.60,-1.52,-1.20,11.62,11.69,11.69
9.58,-1.45,-1.19,11.69,11.69,11.69
9.62,-1.44,-1.23,11.55,11.55,11.55
9.69,-1.45,-1.27,11.20,11.13,11.13
9.73,-1.43,-1.29,10.85,10.85,10.71
9.72,-1.40,-1.27,10.29,10.29,10.36
9.73,-1.37,-1.25,9.59,9.31,9.31
9.67,-1.31,-1.20,8.68,8.40,8.40
9.67,-1.30,-1.20,7.56,7.56,7.49
9.76,-1.29,-1.24,6.09,6.09,6.09
9.77,-1.30,-1.23,5.04,4.76,4.76
9.73,-1.29,-1.22,3.57,3.57,3.36
9.69,-1.27,-1.22,1.68,1.68,1.68
9.70,-1.29,-1.21,0.63,0.28,0.28
9.64,-1.30,-1.18,-0.91,-0.91,-0.98
9.58,-1.29,-1.17,-2.31,-2.31,-2.31
9.57,-1.33,-1.16,-3.15,-3.15,-3.15
9.68,-1.36,-1.22,-3.92,-3.99,-3.99
9.72,-1.38,-1.22,-4.13,-4.06,-4.06
9.69,-1.39,-1.19,-4.13,-4.13,-4.13
9.59,-1.42,-1.17,-4.06,-4.06,-4.06
9.54,-1.43,-1.15,-4.06,-4.06,-4.06
9.59,-1.45,-1.15,-3.92,-3.92,-3.92
9.59,-1.47,-1.15,-3.15,-3.15,-3.15
9.66,-1.50,-1.21,-2.24,-2.24,-2.24
9.63,-1.50,-1.19,-1.26,-1.26,-1.26
9.66,-1.49,-1.20,-0.63,-0.28,-0.28
9.63,-1.51,-1.21,2.10,2.10,2.10
9.71,-1.50,-1.25,2.94,2.94,2.94
9.67,-1.48,-1.22,3.78,3.85,3.85
9.63,-1.44,-1.21,4.13,4.27,4.27
9.65,-1.41,-1.24,4.06,4.27,4.13
9.71,-1.38,-1.28,3.92,3.92,3.92
9.71,-1.35,-1.28,3.71,3.71,3.71
9.70,-1.34,-1.27,3.36,3.29,3.29
9.69,-1.34,-1.29,2.66,2.66,2.45
9.62,-1.33,-1.26,1.82,1.82,1.54
9.61,-1.30,-1.29,0.91,0.91,0.63
9.66,-1.31,-1.33,0.07,0.07,0.07
9.63,-1.30,-1.33,-0.70,-0.70,-0.70
9.67,-1.33,-1.36,-1.19,-1.19,-1.33
9.74,-1.33,-1.36,-1.82,-1.82,-1.82
9.67,-1.32,-1.30,-2.03,-1.96,-1.96
9.66,-1.32,-1.32,-2.24,-2.24,-2.24
9.53,-1.32,-1.31,-2.94,-2.94,-3.01
9.50,-1.33,-1.32,-3.50,-3.50,-3.71
9.55,-1.36,-1.34,-4.34,-4.48,-4.48
9.60,-1.39,-1.34,-4.76,-4.76,-4.76
9.64,-1.44,-1.32,-4.76,-4.90,-4.90
9.60,-1.45,-1.28,-4.55,-4.55,-4.41
9.71,-1.47,-1.31,-3.92,-3.92,-3.92
9.64,-1.51,-1.31,-2.94,-2.80,-2.80
9.67,-1.56,-1.34,-2.24,-2.10,-2.10
9.70,-1.54,-1.34,-1.68,-1.54,-1.54
9.68,-1.57,-1.31,-0.91,-0.91,-0.56
9.65,-1.54,-1.29,-0.21,-0.21,-0.07
9.71,-1.53,-1.33,0.42,0.42,0.42
9.60,-1.53,-1.28,1.40,1.40,1.40
9.51,-1.52,-1.24,1.89,2.03,2.03
9.45,-1.52,-0.00,2.31,2.31,2.17
9.56,-1.50,-1.26,2.17,2.17,1.96
9.63,-1.50,-1.28,1.89,2.03,2.03
9.71,-1.47,-1.28,1.82,1.96,1.89
9.71,-1.49,-1.31,1.82,1.82,1.82
9.73,-1.48,-1.31,1.54,1.54,1.54
9.74,-1.51,-1.32,1.26,1.33,1.33
9.79,-1.48,-1.33,0.84,0.77,0.77
9.79,-1.46,-1.34,0.21,0.21,0.07
9.77,-1.43,-1.33,-0.07,-0.28,-0.21
9.75,-1.41,-1.34,-0.63,-0.63,-0.84
9.66,-1.39,-1.32,-1.19,-1.47,-1.40
9.66,-1.39,-1.34,-1.82,-1.82,-2.03
9.57,-1.37,-1.28,-2.31,-2.31,-2.31
9.64,-1.36,-1.30,-2.59,-2.59,-2.59
9.65,-1.42,-1.32,-2.80,-2.80,-2.80
9.65,-1.40,-1.32,-2.66,-2.66,-2.66
9.61,-1.41,-1.37,-2.52,-2.52,-2.52
9.67,-1.43,-1.36,-2.38,-2.38,-2.38
9.65,-1.43,-1.36,-1.96,-1.96,-1.96
9.63,-1.42,-1.36,-1.40,-1.40,-1.33
9.58,-1.43,-1.34,-0.91,-0.91,-0.77
9.56,-1.43,-1.34,-0.63,-0.63,-0.56
9.62,-1.44,-1.34,-0.28,-0.28,-0.21
9.61,-1.45,-1.36,0.35,0.35,0.35
9.59,-1.45,-1.34,1.12,1.12,1.12
9.58,-1.43,-1.34,1.40,1.40,1.40
9.58,-1.45,-1.34,1.54,1.61,1.61
9.54,-1.45,-1.29,1.61,1.61,1.61
9.59,-1.45,-1.31,1.75,1.82,1.82
9.66,-1.46,-1.33,1.82,1.82,1.82
9.64,-1.45,-1.34,1.68,1.75,1.75
9.75,-1.48,-1.36,1.26,1.12,1.19
9.80,-1.48,-1.36,0.91,0.91,0.91
9.79,-1.46,-1.39,0.63,0.63,0.56
9.70,-1.45,-1.37,0.14,0.14,0.14
9.58,-1.43,-1.35,-0.42,-0.42,-0.56
9.51,-1.43,-1.32,-1.40,-1.40,-1.47
9.54,-1.43,-1.37,-2.17,-2.17,-2.10
9.53,-1.45,-1.34,-2.73,-2.73,-2.73
9.54,-1.47,-1.34,-3.43,-3.43,-3.43
9.59,-1.50,-1.33,-3.71,-3.64,-3.64
9.57,-1.51,-1.35,-3.64,-3.64,-3.64
9.59,-1.53,-1.38,-3.29,-3.29,-3.29
9.60,-1.56,-1.39,-2.73,-2.59,-2.59
9.56,-1.56,-1.37,-2.03,-2.03,-1.96
9.55,-1.52,-1.36,-1.54,-1.54,-1.54
9.56,-1.44,-1.34,-1.89,-1.89,-1.89
9.67,-1.35,-1.32,-3.36,-3.36,-3.36
9.65,-1.32,-1.31,-4.48,-4.48,-4.55
9.82,-1.36,-1.35,-5.60,-5.67,-5.67
9.84,-1.37,-1.35,-5.88,-5.88,-5.81
9.76,-1.37,-1.32,-5.74,-5.88,-5.74
9.64,-1.38,-1.24,-5.60,-5.60,-5.53
9.62,-1.43,-1.23,-5.32,-5.32,-5.18
9.57,-1.53,-1.24,-3.71,-3.71,-3.71
9.58,-1.59,-1.24,-2.66,-2.66,-2.66
9.61,-1.63,-1.26,-1.05,-1.05,-1.05
9.61,-1.64,-1.28,1.26,1.26,1.26
9.65,-1.67,-1.28,2.66,2.66,2.66
9.64,-1.65,-1.30,4.20,4.41,4.41
9.71,-1.64,-1.31,5.25,5.39,5.39
9.74,-1.59,-1.34,6.58,6.58,6.65
9.68,-1.57,-1.28,7.07,7.07,7.14
9.62,-1.51,-1.28,7.07,7.07,7.07
9.58,-1.46,-1.29,6.37,6.16,6.16
9.63,-1.46,-1.29,5.81,5.46,5.46
9.70,-1.44,-1.36,4.90,4.69,4.55
9.56,-1.40,-1.33,2.38,2.38,2.38
9.60,-1.39,-1.35,1.19,0.84,0.84
9.70,-1.40,-1.40,-0.21,-0.21,-0.56
9.75,-1.41,-1.47,-1.26,-1.26,-1.61
9.60,-1.38,-1.40,-3.29,-3.36,-3.36
9.59,-1.38,-1.39,-3.92,-3.85,-3.85
9.52,-1.42,-1.37,-4.06,-3.99,-3.99
9.54,-1.40,-1.41,-3.99,-3.99,-3.92
9.60,-1.44,-1.42,-3.71,-3.71,-3.71
9.62,-1.45,-1.39,-3.43,-3.43,-3.22
9.64,-1.52,-1.35,-1.82,-1.82,-1.82
9.72,-1.53,-1.35,-0.98,-0.98,-0.98
9.72,-1.51,-1.33,0.14,0.21,0.21
9.72,-1.49,-1.33,0.91,1.19,1.19
9.71,-1.51,-1.34,1.68,1.82,2.03
9.57,-1.45,-1.27,2.94,2.94,2.94
9.56,-1.46,-1.25,2.87,2.87,2.94
9.60,-1.45,-1.25,2.87,2.94,2.94
9.58,-1.44,-1.25,3.08,3.08,3.08
9.66,-1.42,-1.27,3.08,3.08,3.08
9.66,-1.41,-1.28,2.94,2.87,2.87
9.61,-1.40,-1.26,2.87,2.87,2.80
9.65,-1.41,-1.30,2.80,2.80,2.80
9.68,-1.41,-1.30,2.59,2.59,2.59
9.64,-1.42,-1.30,2.45,2.45,2.45
9.70,-1.41,-1.30,2.03,2.03,2.03
9.71,-1.40,-1.34,1.75,1.75,1.75
9.81,-1.41,-1.35,1.54,1.54,1.54
9.72,-1.40,-1.34,1.75,1.75,1.75
9.69,-1.41,-1.32,1.75,1.75,1.82
9.60,-1.39,-1.27,1.26,1.26,1.26
9.51,-1.39,-1.26,0.98,0.84,0.84
9.57,-1.41,-1.28,0.77,0.77,0.56
9.60,-1.40,-1.29,0.63,0.63,0.70
9.67,-1.42,-1.34,0.77,0.77,0.84
9.70,-1.43,-1.31,0.91,0.91,0.91
9.67,-1.41,-1.31,0.91,0.98,0.98
9.70,-1.40,-1.31,1.19,1.33,1.33
9.67,-1.44,-1.30,1.61,1.61,1.61
9.62,-1.44,-1.30,1.75,1.75,1.75
9.61,-1.41,-1.29,1.96,1.96,1.96
9.60,-1.41,-1.30,1.96,1.96,1.96
9.66,-1.40,-1.31,1.75,1.82,1.82
9.65,-1.40,-1.31,1.68,1.68,1.82
9.61,-1.41,-1.30,1.54,1.54,1.54
9.67,-1.42,-1.34,1.40,1.40,1.40
9.67,-1.40,-1.32,0.98,0.98,0.98
9.61,-1.40,-1.30,0.84,0.84,0.84
9.56,-1.40,-1.30,0.77,0.77,0.77
9.61,-1.39,-1.29,0.70,0.70,0.70
9.68,-1.44,-1.34,0.63,0.70,0.63
9.61,-1.41,-1.32,0.77,0.77,0.63
9.73,-1.44,-1.36,0.70,0.70,0.70
9.65,-1.43,-1.33,0.63,0.70,0.70
9.66,-1.43,-1.30,0.63,0.63,0.56
9.57,-1.43,-1.28,0.42,0.42,0.42
9.56,-1.44,-1.28,0.35,0.35,0.35
9.60,-1.42,-1.29,0.21,0.14,0.14
9.60,-1.44,-1.30,0.00,0.00,0.00
9.64,-1.45,-1.33,-0.21,-0.21,-0.21
9.67,-1.48,-1.32,-0.42,-0.42,-0.42
9.71,-1.50,-1.33,-0.56,-0.42,-0.42
9.63,-1.50,-1.30,-0.35,-0.42,-0.42
9.64,-1.47,-1.31,-0.42,-0.42,-0.42
9.64,-1.47,-1.28,-0.70,-0.70,-0.70
9.60,-1.47,-1.30,-0.84,-0.84,-0.84
9.59,-1.49,-1.31,-0.35,-0.35,-0.35
9.63,-1.45,-1.31,-0.28,-0.28,-0.28
9.57,-1.46,-1.28,-0.28,-0.28,-0.28
9.56,-1.45,-1.29,-0.49,-0.49,-0.49
9.63,-1.46,-1.31,-0.56,-0.42,-0.42
9.65,-1.44,-1.31,-0.35,-0.35,-0.21
9.69,-1.45,-1.33,0.14,0.14,0.14
9.68,-1.41,-1.33,0.35,0.35,0.35
9.68,-1.42,-1.34,0.35,0.35,0.35
9.63,-1.40,-1.32,0.21,0.21,0.21
9.58,-1.38,-1.32,0.14,0.14,0.07
9.62,-1.36,-1.28,-0.07,-0.07,-0.07
9.64,-1.35,-1.31,-0.56,-0.56,-0.56
9.66,-1.36,-1.31,-1.05,-1.05,-1.05
9.63,-1.34,-1.31,-1.47,-1.61,-1.61
9.54,-1.31,-1.29,-1.96,-2.17,-2.17
9.63,-1.32,-1.28,-2.52,-2.59,-2.59
9.68,-1.33,-1.32,-2.94,-2.94,-2.94
9.63,-1.35,-1.27,-2.94,-3.01,-3.01
9.66,-1.40,-1.28,-2.94,-2.87,-2.87
9.70,-1.39,-1.25,-2.87,-2.80,-2.80
9.67,-1.40,-1.24,-2.52,-2.38,-2.38
9.61,-1.41,-1.22,-2.31,-2.38,-2.38
9.59,-1.41,-1.24,-2.38,-2.38,-2.24
9.61,-1.41,-1.21,-2.17,-2.24,-2.17
9.69,-1.43,-1.24,-1.75,-1.75,-1.75
9.60,-1.46,-1.18,-0.28,-0.28,-0.28
9.61,-1.47,-1.21,0.00,0.00,0.07
9.64,-1.49,-1.21,0.28,0.28,0.28
9.70,-1.49,-1.25,0.77,0.77,0.77
9.74,-1.50,-1.22,1.05,1.05,1.05
9.78,-1.51,-1.24,1.12,1.19,1.19
9.73,-1.49,-1.24,1.05,1.05,1.05
9.71,-1.49,-1.22,0.84,0.84,0.84
9.69,-1.49,-1.23,0.84,0.84,0.84
9.65,-1.45,-1.22,0.63,0.49,0.49
9.60,-1.44,-1.19,-0.14,-0.14,-0.14
9.60,-1.42,-1.19,-1.05,-1.05,-1.19
9.62,-1.42,-1.19,-1.68,-1.68,-1.82
9.64,-1.45,-1.24,-2.31,-2.31,-2.31
9.72,-1.46,-1.25,-2.52,-2.52,-2.59
9.82,-1.45,-1.27,-2.87,-2.87,-2.87
9.73,-1.43,-1.25,-2.94,-2.94,-2.94
9.71,-1.44,-1.25,-2.94,-3.08,-3.08
9.67,-1.44,-1.24,-3.15,-3.15,-3.15
9.65,-1.43,-1.24,-3.08,-3.08,-3.08
9.70,-1.44,-1.25,-2.80,-2.80,-2.59
9.63,-1.41,-1.21,-2.10,-2.10,-2.10
9.57,-1.42,-1.24,-1.61,-1.61,-1.61
9.59,-1.40,-1.22,-1.47,-1.47,-1.40
9.56,-1.36,-1.22,-1.26,-1.26,-1.19
9.62,-1.34,-1.24,-1.05,-1.05,-0.91
9.65,-1.35,-1.26,-0.91,-0.91,-0.91
9.72,-1.36,-1.25,-0.70,-0.63,-0.63
9.81,-1.39,-1.27,-0.49,-0.49,-0.42
9.71,-1.37,-1.24,-0.35,-0.35,-0.35
9.70,-1.36,-1.23,-0.28,-0.28,-0.28
9.60,-1.38,-1.21,-0.21,-0.21,-0.21
9.60,-1.42,-1.22,-0.28,-0.28,-0.28
9.57,-1.43,-1.23,-0.35,-0.35,-0.35
9.61,-1.42,-1.26,-0.42,-0.42,-0.42
9.60,-1.44,-1.23,-0.35,-0.42,-0.42
9.60,-1.43,-1.23,-0.42,-0.35,-0.35
9.60,-1.43,-1.25,-0.42,-0.42,-0.42
9.70,-1.46,-1.29,-0.63,-0.56,-0.56
9.69,-1.46,-1.29,-0.56,-0.42,-0.42
9.71,-1.46,-1.30,-0.35,-0.35,-0.35
9.71,-1.46,-1.29,-0.42,-0.49,-0.49
9.60,-1.44,-1.23,-0.56,-0.70,-0.70
9.55,-1.43,-1.24,-0.77,-0.77,-0.77
9.60,-1.45,-1.26,-1.40,-1.40,-1.40
9.56,-1.44,-1.26,-1.47,-1.40,-1.40
9.60,-1.45,-1.27,-1.61,-1.61,-1.68
9.64,-1.45,-1.31,-1.82,-1.82,-1.82
9.66,-1.47,-1.29,-2.03,-2.03,-2.03
9.69,-1.45,-1.31,-2.66,-2.66,-2.66
9.67,-1.41,-1.28,-3.15,-3.15,-3.15
9.69,-1.39,-1.27,-3.29,-3.22,-3.22
9.64,-1.40,-1.28,-3.36,-3.36,-3.36
9.61,-1.34,-1.22,-3.71,-3.78,-3.78
9.65,-1.39,-1.23,-4.62,-4.62,-4.76
9.76,-1.40,-1.24,-4.48,-4.48,-4.34
9.78,-1.46,-1.24,-3.78,-3.78,-3.57
9.81,-1.52,-1.29,-2.73,-2.59,-2.59
9.82,-1.54,-1.26,-0.98,-0.98,-0.77
9.66,-1.57,-1.24,0.49,0.49,0.84
9.59,-1.58,-1.23,2.10,2.52,2.52
9.59,-1.55,-1.26,3.57,3.78,3.78
9.57,-1.53,-1.24,5.32,5.32,5.46
9.59,-1.55,-1.24,6.23,6.44,6.65
9.60,-1.52,-1.27,7.28,7.14,7.14
9.69,-1.51,-1.28,7.56,7.70,7.70
9.65,-1.46,-1.26,7.49,7.49,7.63
9.66,-1.47,-1.29,7.49,7.56,7.42
9.66,-1.46,-1.27,7.14,7.14,7.14
9.72,-1.45,-1.32,6.58,6.44,6.44
9.72,-1.46,-1.32,6.09,5.95,5.95
9.72,-1.42,-1.31,5.25,5.25,5.25
9.77,-1.43,-1.34,4.55,4.55,4.55
9.71,-1.42,-1.32,3.64,3.50,3.50
9.65,-1.40,-1.27,2.94,2.94,2.94
9.63,-1.41,-1.29,1.96,1.96,1.96
9.65,-1.42,-1.30,1.33,1.12,1.12
9.67,-1.42,-1.29,0.63,0.63,0.63
9.67,-1.45,-1.34,0.42,0.35,0.35
9.64,-1.45,-1.33,0.35,0.42,0.42
9.64,-1.49,-1.31,0.56,0.56,0.56
9.67,-1.51,-1.37,0.63,0.63,0.70
9.74,-1.53,-1.38,1.19,1.26,1.26
9.71,-1.51,-1.34,1.96,2.24,2.24
9.63,-1.49,-1.31,2.73,2.80,2.80
9.60,-1.48,-1.30,3.78,3.78,3.78
9.56,-1.47,-1.31,4.20,4.48,4.55
9.61,-1.44,-1.36,6.37,6.37,6.37
9.55,-1.38,-1.30,6.09,6.09,6.09
9.63,-1.38,-1.33,5.95,5.74,5.67
9.59,-1.37,-1.31,4.97,4.97,4.83
9.66,-1.39,-1.33,4.41,4.41,4.41
9.68,-1.37,-1.35,3.99,3.99,3.99
9.68,-1.40,-1.35,3.64,3.64,3.64
9.63,-1.39,-1.32,3.36,3.36,3.36
9.57,-1.37,-1.33,3.08,3.01,3.01
9.57,-1.37,-1.32,2.73,2.73,2.73
9.55,-1.42,-1.34,2.87,2.87,2.87
9.61,-1.41,-1.33,3.08,3.08,3.08
9.63,-1.42,-1.32,3.29,3.29,3.29
9.64,-1.42,-1.33,3.43,3.43,3.43
9.67,-1.43,-1.30,3.57,3.50,3.50
9.60,-1.42,-1.33,3.57,3.78,3.78
9.64,-1.45,-1.31,3.99,3.99,3.99
9.66,-1.42,-1.34,4.20,4.06,4.06
9.68,-1.45,-1.34,3.99,3.92,3.92
9.62,-1.41,-1.30,3.71,3.71,3.71
9.63,-1.43,-1.30,3.50,3.50,3.43
9.60,-1.39,-1.34,3.08,3.08,3.08
9.67,-1.40,-1.37,2.66,2.59,2.59
9.67,-1.43,-1.37,1.89,1.89,1.75
9.70,-1.41,-1.34,1.54,1.54,1.47
9.63,-1.39,-1.36,0.77,0.77,0.77
9.60,-1.37,-1.36,-0.07,-0.07,-0.07
9.62,-1.39,-1.36,-1.19,-1.19,-1.19
9.66,-1.44,-1.38,-1.54,-1.54,-1.54
9.71,-1.45,-1.41,-1.96,-1.96,-1.96
9.73,-1.47,-1.39,-2.24,-2.24,-2.24
9.57,-1.45,-1.35,-2.59,-2.66,-2.73
9.51,-1.43,-1.34,-2.94,-2.94,-2.94
9.60,-1.46,-1.38,-3.15,-3.15,-3.22
9.63,-1.47,-1.40,-2.80,-2.80,-2.80
9.73,-1.51,-1.41,-2.45,-2.17,-2.17
9.74,-1.50,-1.42,-1.61,-1.61,-1.40
9.61,-1.47,-1.34,-0.70,-0.70,-0.70
9.53,-1.45,-1.34,0.00,0.07,0.07
9.59,-1.46,-1.35,0.35,0.49,0.49
9.63,-1.47,-1.35,0.91,0.98,0.98
9.60,-1.45,-1.36,1.33,1.33,1.40
9.60,-1.44,-1.39,1.54,1.54,1.54
9.61,-1.45,-1.36,1.61,1.61,1.61
9.65,-1.41,-1.37,1.47,1.47,1.47
9.62,-1.41,-1.37,1.26,1.33,1.33
9.63,-1.38,-1.38,0.91,0.63,0.63
9.65,-1.39,-1.37,0.35,0.21,0.21
9.63,-1.39,-1.39,-0.56,-0.63,-0.63
9.64,-1.39,-1.36,-1.26,-1.26,-1.26
9.57,-1.37,-1.34,-1.54,-1.54,-1.75
9.57,-1.36,-1.36,-2.17,-2.17,-2.24
9.54,-1.38,-1.36,-2.80,-2.80,-2.80
9.58,-1.40,-1.39,-3.01,-3.01,-3.08
9.63,-1.41,-1.35,-3.08,-3.01,-3.08
9.63,-1.43,-1.34,-2.87,-2.87,-2.87
9.54,-1.45,-1.30,-2.94,-2.94,-2.66
9.59,-1.44,-1.31,-3.08,-3.08,-3.08
9.63,-1.42,-1.32,-3.15,-3.22,-3.22
9.67,-1.44,-1.36,-3.29,-3.29,-3.36
9.68,-1.43,-1.34,-3.29,-3.36,-3.29
9.56,-1.42,-1.31,-3.50,-3.50,-3.50
9.53,-1.43,-1.28,-3.99,-3.92,-3.92
9.55,-1.40,-1.25,-4.06,-4.06,-4.06
9.60,-1.43,-1.26,-4.06,-4.06,-4.06
9.70,-1.40,-1.28,-4.20,-4.13,-4.13
9.72,-1.40,-1.23,-4.41,-4.41,-4.48
9.68,-1.40,-1.22,-4.76,-4.76,-4.76
9.69,-1.42,-1.24,-5.18,-5.18,-5.18
9.66,-1.48,-1.20,-5.25,-5.25,-5.04
9.63,-1.50,-1.21,-4.69,-4.69,-4.69
9.63,-1.55,-1.25,-4.06,-4.06,-3.92
9.65,-1.67,-1.34,0.21,0.21,0.21
9.56,-1.63,-1.34,1.75,1.75,1.75
9.60,-1.57,-1.35,2.59,2.59,2.59
9.56,-1.54,-1.34,3.22,3.22,3.29
9.52,-1.49,-1.36,3.85,3.85,3.85
9.56,-1.51,-1.36,3.71,3.71,3.71
9.64,-1.49,-1.39,3.43,3.43,3.43
9.74,-1.47,-1.43,2.38,2.24,2.24
9.84,-1.43,-1.46,1.26,0.63,0.63
9.90,-1.38,-1.47,-0.91,-0.91,-1.19
9.93,-1.37,-1.44,-2.87,-2.87,-2.87
9.91,-1.37,-1.39,-5.95,-5.95,-5.95
9.83,-1.38,-1.35,-8.68,-8.68,-8.68
9.80,-1.41,-1.34,-11.48,-11.48,-11.48
9.84,-1.40,-1.36,-14.21,-14.21,-14.21
9.84,-1.43,-1.35,-16.31,-16.59,-16.59
9.86,-1.49,-1.31,-18.41,-18.41,-18.69
9.75,-1.51,-1.29,-19.53,-19.53,-19.67
9.59,-1.53,-1.23,-20.93,-21.00,-21.00
9.51,-1.54,-1.19,-21.98,-21.98,-22.12
9.53,-1.55,-1.18,-22.75,-22.75,-22.82
9.63,-1.61,-1.18,-22.96,-22.96,-22.82
9.71,-1.66,-1.19,-22.33,-22.33,-22.33
9.77,-1.70,-1.20,-21.42,-21.42,-21.42
9.84,-1.71,-1.19,-21.00,-21.07,-21.07
9.92,-1.72,-1.20,-21.00,-21.07,-21.07
9.94,-1.74,-1.16,-21.00,-21.00,-21.00
9.97,-1.69,-1.17,-21.00,-21.00,-21.07
10.04,-1.64,-1.15,-21.21,-21.21,-21.35
10.16,-1.54,-1.19,-22.33,-22.47,-22.47
10.14,-1.44,-1.22,-24.08,-24.29,-24.29
10.20,-1.42,-1.25,-27.02,-27.02,-27.23
10.27,-1.35,-1.24,-29.05,-29.05,-29.05
10.31,-1.23,-1.28,-31.57,-31.78,-31.78
10.27,-1.20,-1.30,-33.11,-34.02,-34.02
10.15,-1.21,-1.28,-35.70,-35.70,-35.70
9.99,-1.14,-1.21,-37.24,-37.24,-37.24
9.92,-1.04,-1.16,-37.31,-37.31,-37.31
9.52,-0.90,-1.05,-36.26,-36.26,-36.05
9.60,-0.93,-1.04,-35.00,-35.00,-33.88
9.62,-0.89,-0.89,-31.64,-31.64,-31.15
9.46,-0.73,-0.67,-25.41,-25.41,-24.85
9.36,-0.63,-0.60,-21.28,-19.95,-19.32
9.29,-0.62,-0.56,-16.03,-16.03,-14.14
9.67,0.16,-0.42,-8.82,-8.40,-8.40
9.85,0.75,-0.33,-7.56,-7.49,-7.49
9.84,1.27,-0.21,-8.54,-8.75,-8.75
9.65,1.66,-0.08,-11.48,-11.48,-12.11
9.38,1.45,-0.01,-16.52,-16.52,-16.94
9.09,1.08,-0.06,-18.69,-18.69,-18.83
8.70,0.50,-0.07,-18.69,-18.20,-17.92
8.15,-0.08,-0.10,-15.26,-14.70,-14.70
7.94,-0.52,-0.12,-8.75,-8.75,-8.12
7.90,-0.77,-0.12,-4.06,-4.06,-3.36
8.00,-0.81,-0.11,1.96,1.96,1.96
8.18,-0.89,-0.14,5.18,6.16,6.16
8.68,-1.08,-0.22,10.15,10.71,10.71
9.17,-1.23,-0.38,16.24,16.24,17.01
9.72,-1.37,-0.48,21.91,21.91,22.54
10.23,-1.47,-0.55,26.67,26.67,27.37
10.42,-1.51,-0.58,33.39,33.39,33.39
10.49,-1.48,-0.64,38.22,38.22,38.22
10.50,-1.42,-0.74,41.02,41.65,41.65
10.48,-1.39,-0.93,42.84,42.84,43.05
10.48,-1.31,-1.06,43.05,43.05,42.91
10.60,-1.29,-2.44,41.72,41.72,41.16
10.65,-1.18,-1.33,39.06,39.06,39.06
10.59,-1.09,-1.33,34.02,34.02,34.02
10.15,-1.05,-1.15,29.26,29.26,29.26
9.48,-0.99,-1.00,25.62,24.36,24.36
8.93,-0.94,-0.83,20.16,19.39,19.39
8.68,-0.94,-0.90,12.25,12.25,12.25
8.83,-1.01,-1.02,6.58,6.58,6.58
9.08,-1.12,-1.13,-0.21,-0.84,-0.84
9.40,-1.27,-1.22,-3.92,-5.53,-5.53
9.77,-1.47,-1.24,-8.61,-8.61,-8.61
9.98,-1.62,-1.28,-10.57,-10.64,-10.64
10.06,-1.75,-1.23,-11.83,-11.90,-11.90
10.00,-1.89,-1.14,-11.76,-11.76,-11.76
9.82,-1.96,-1.05,-10.85,-10.85,-10.85
9.76,-2.06,-1.00,-7.91,-7.91,-7.91
9.85,-2.09,-1.01,-5.53,-5.04,-5.04
10.06,-2.10,-1.09,-1.96,-1.96,-1.54
10.43,-2.16,-1.23,2.94,2.94,3.36
10.75,-2.17,-1.30,6.58,6.58,6.93
10.85,-2.18,-1.31,9.10,9.10,9.31
10.81,-2.08,-1.34,11.34,11.34,11.41
10.69,-2.01,-1.34,10.99,10.99,10.64
10.51,-1.91,-1.36,9.24,9.24,8.05
10.37,-1.83,-1.34,5.53,5.53,4.83
10.27,-1.75,-1.36,-0.98,-0.98,-1.75
10.17,-1.69,-1.37,-5.25,-6.65,-6.65
10.15,-1.66,-1.41,-11.27,-11.27,-12.74
10.27,-1.77,-1.53,-24.36,-24.36,-24.36
10.28,-1.80,-1.52,-29.75,-29.75,-29.75
10.26,-1.86,-1.55,-34.23,-34.23,-34.23
10.30,-1.93,-1.56,-39.13,-39.13,-39.13
10.39,-2.00,-1.58,-44.94,-44.94,-44.94
10.10,-2.05,-1.41,-48.02,-48.02,-48.02
9.29,-2.03,-1.09,-48.65,-48.65,-48.65
7.73,-1.98,-0.60,-45.15,-44.45,-44.45
7.77,-1.93,-0.61,-42.70,-42.28,-41.51
8.26,-1.93,-0.70,-39.27,-38.78,-38.78
8.90,-1.99,-0.75,-34.65,-33.88,-32.27
9.39,-2.09,-0.80,-28.07,-27.23,-27.23
9.80,-2.19,-0.87,-17.92,-16.80,-16.80
9.95,-2.25,-0.87,-10.15,-10.15,-9.10
9.95,-2.31,-0.88,-1.47,-1.47,-1.47
10.03,-2.13,-0.94,7.21,7.21,7.21
10.12,-1.96,-0.96,12.67,12.67,12.67
10.16,-1.72,-0.94,16.66,16.66,16.66
10.16,-1.55,-0.98,20.30,20.30,20.30
10.01,-1.43,-0.92,23.73,24.22,24.22
9.76,-1.33,-0.87,26.53,26.88,26.88
9.62,-1.24,-0.77,30.38,30.38,30.73
9.59,-1.16,-0.74,32.76,32.76,33.32
9.62,-1.09,-0.75,35.63,36.33,36.33
9.71,-1.05,-0.77,38.43,38.43,39.13
9.85,-1.04,-0.83,41.09,41.09,41.93
9.99,-1.06,-0.97,44.24,44.24,44.24
10.13,-1.07,-1.10,46.69,46.97,46.97
10.12,-1.05,-1.12,48.37,48.65,48.65
10.00,-1.00,-1.16,50.19,50.19,50.33
9.82,-0.91,-1.17,50.26,50.05,49.91
9.61,-0.62,-1.25,48.02,48.02,47.67
9.41,-0.47,-1.24,45.64,44.66,44.10
9.31,-0.32,-1.26,41.72,41.72,39.97
9.28,-0.25,-1.24,35.63,35.63,35.00
9.32,-0.24,-1.18,30.94,30.94,30.94
9.37,-0.25,-1.06,24.08,23.24,23.24
9.37,-0.38,-0.96,17.71,16.87,16.87
9.33,-0.47,-0.96,11.13,10.22,10.22
9.25,-0.63,-0.96,6.16,3.92,3.92
9.22,-0.88,-1.02,0.56,-1.26,-1.26
9.21,-1.08,-1.03,-4.13,-4.13,-4.13
9.20,-1.22,-1.05,-6.79,-6.79,-6.79
9.27,-1.27,-1.06,-8.12,-8.12,-8.61
9.51,-1.34,-1.12,-9.73,-9.94,-9.94
9.73,-1.45,-1.18,-11.76,-11.97,-11.97
10.00,-1.55,-1.19,-12.67,-12.67,-12.67
10.16,-1.66,-1.19,-12.74,-12.74,-12.74
10.32,-1.67,-1.23,-12.53,-12.53,-12.53
10.36,-1.74,-1.23,-12.60,-12.60,-12.60
10.28,-1.77,-1.21,-12.74,-12.74,-12.74
10.12,-1.74,-1.16,-12.88,-12.95,-12.95
10.01,-1.77,-1.13,-13.02,-13.02,-13.02
9.90,-1.76,-1.16,-12.95,-13.02,-13.16
9.81,-1.76,-1.11,-13.16,-13.30,-13.16
9.75,-1.79,-1.12,-13.16,-13.02,-13.02
9.70,-1.81,-1.15,-12.74,-12.74,-12.67
9.75,-1.83,-1.18,-12.46,-12.46,-12.32
9.79,-1.84,-1.19,-12.25,-12.25,-12.25
9.89,-1.88,-1.20,-11.97,-11.97,-11.97
9.88,-1.90,-1.19,-11.55,-11.13,-11.13
9.95,-1.90,-1.16,-10.57,-10.57,-10.57
10.06,-1.90,-1.19,-10.01,-10.01,-10.01
10.12,-1.90,-1.19,-9.24,-9.24,-9.24
10.22,-1.90,-1.20,-8.68,-8.68,-8.68
10.09,-1.75,-1.23,-7.49,-7.42,-7.42
9.90,-1.76,-1.22,-6.72,-6.72,-6.58
9.67,-1.70,-1.21,-6.37,-6.23,-6.23
9.58,-1.66,-1.29,-6.51,-6.51,-6.51
9.45,-1.63,-1.34,-7.14,-7.14,-7.14
9.36,-1.59,-1.32,-7.98,-7.98,-7.98
9.35,-1.55,-1.33,-8.61,-8.61,-8.61
9.25,-1.56,-1.28,-9.31,-9.31,-9.31
9.16,-1.55,-1.26,-9.66,-9.59,-9.59
9.01,-1.53,-1.19,-9.73,-9.66,-9.66
8.85,-1.53,-1.10,-9.52,-9.52,-9.31
8.87,-1.52,-1.06,-8.54,-8.54,-8.54
8.93,-1.52,-1.07,-6.65,-6.65,-6.65
9.10,-1.55,-1.11,-5.18,-5.18,-4.97
9.24,-1.56,-1.13,-2.03,-2.03,-2.03
9.35,-1.56,-1.12,0.98,0.98,0.98
9.49,-1.54,-1.19,4.20,4.55,4.55
9.64,-1.50,-1.23,6.09,6.93,6.93
9.75,-1.48,-1.20,8.40,8.75,9.24
9.83,-1.45,-1.16,10.85,11.06,11.06
9.84,-1.34,-1.09,13.16,13.37,13.37
9.75,-1.27,-1.01,14.49,14.56,14.56
9.64,-1.17,-0.90,15.33,15.33,15.40
9.49,-1.09,-0.89,15.47,15.26,15.05
9.41,-1.00,-0.86,14.49,14.49,13.86
9.46,-0.99,-0.86,12.74,12.74,12.60
9.63,-0.98,-0.92,10.01,10.01,9.52
9.80,-0.98,-0.91,7.77,7.77,7.56
9.87,-1.00,-0.88,6.37,5.88,5.88
9.93,-1.01,-0.86,4.62,4.62,4.13
9.97,-1.04,-0.87,2.87,2.87,2.87
10.01,-1.05,-0.92,0.35,0.35,0.35
10.05,-1.07,-0.89,-1.82,-1.82,-1.82
10.13,-1.11,-0.92,-3.43,-3.78,-3.78
10.09,-1.14,-0.93,-5.67,-5.95,-5.95
10.07,-1.19,-0.89,-8.26,-8.26,-8.26
9.97,-1.20,-0.87,-10.29,-10.29,-10.57
9.98,-1.26,-0.89,-11.90,-11.90,-12.11
9.89,-1.32,-0.85,-13.23,-13.23,-13.23
9.90,-1.42,-0.88,-13.58,-13.58,-13.58
9.83,-1.47,-0.87,-13.51,-13.44,-13.44
9.92,-1.53,-0.95,-13.30,-13.30,-12.95
9.97,-1.61,-0.97,-12.25,-12.25,-12.25
10.05,-1.67,-1.02,-11.27,-11.27,-11.06
10.03,-1.68,-1.04,-10.22,-10.22,-10.22
10.08,-1.73,-1.12,-8.68,-8.68,-8.40
10.10,-1.77,-1.13,-7.21,-7.21,-7.07
10.11,-1.78,-1.12,-5.67,-5.67,-5.60
9.82,-1.68,-1.09,-2.38,-2.38,-2.38
9.71,-1.68,-1.10,-1.54,-1.54,-1.54
9.75,-1.72,-1.16,-0.84,-0.84,-0.84
9.65,-1.72,-1.19,-0.14,-0.14,-0.14
9.66,-1.72,-1.18,1.12,1.12,1.12
9.53,-1.68,-1.17,2.94,2.94,2.94
9.40,-1.65,-1.12,4.48,4.48,4.48
9.24,-1.59,-1.07,5.95,5.95,5.95
9.11,-1.53,-1.05,6.58,6.86,6.86
9.07,-1.52,-1.03,7.00,7.14,7.14
9.29,-1.54,-1.09,7.28,7.21,7.35
9.64,-1.51,-1.21,7.49,7.49,7.49
9.85,-1.54,-1.20,7.98,7.98,7.98
9.80,-1.45,-1.18,8.26,8.26,8.33
9.54,-1.38,-1.08,7.49,7.49,7.49
9.44,-1.39,-1.09,6.51,6.09,6.09
9.37,-1.34,-1.12,4.76,4.76,4.62
9.34,-1.35,-1.19,3.57,3.57,3.57
9.37,-1.36,-1.22,3.01,2.73,2.73
9.47,-1.37,-1.25,1.96,1.96,1.68
9.48,-1.32,-1.23,0.70,0.70,0.70
9.45,-1.34,-1.22,-1.26,-1.26,-1.26
9.36,-1.33,-1.14,-3.64,-3.64,-3.64
9.38,-1.33,-1.12,-4.83,-4.97,-4.97
9.39,-1.39,-1.09,-6.65,-6.65,-6.79
9.38,-1.41,-1.10,-8.05,-8.05,-8.05
9.50,-1.45,-1.14,-8.68,-8.68,-8.68
9.58,-1.49,-1.21,-9.17,-9.17,-9.17
9.67,-1.54,-1.26,-9.17,-9.17,-9.17
9.64,-1.53,-1.21,-9.17,-9.17,-9.17
9.59,-1.53,-1.20,-8.75,-8.75,-8.75
9.51,-1.52,-1.17,-8.54,-8.40,-8.40
9.40,-1.50,-1.10,-8.33,-8.26,-8.26
9.42,-1.53,-1.07,-8.19,-8.19,-8.19
9.46,-1.51,-1.03,-8.19,-8.19,-8.19
9.53,-1.56,-1.03,-8.33,-8.33,-8.33
9.67,-1.56,-1.04,-8.26,-8.26,-8.33
9.82,-1.62,-1.06,-8.19,-8.05,-8.05
9.93,-1.65,-1.07,-7.70,-7.70,-7.56
9.94,-1.66,-1.00,-7.07,-7.07,-7.07
9.94,-1.67,-1.01,-6.65,-6.58,-6.58
9.88,-1.67,-1.00,-6.23,-6.23,-6.16
9.96,-1.69,-1.00,-5.88,-5.88,-5.88
10.02,-1.71,-1.08,-5.18,-5.18,-4.97
10.10,-1.77,-1.07,-4.48,-4.48,-4.34
10.12,-1.75,-1.10,-3.15,-3.15,-3.08
10.16,-1.75,-1.12,-2.31,-2.31,-2.17
10.23,-1.74,-1.16,-1.75,-1.75,-1.75
10.11,-1.75,-1.12,-0.70,-0.70,-0.56
10.03,-1.69,-1.10,0.07,0.07,0.07
9.89,-1.65,-1.10,0.35,0.42,0.42
9.84,-1.61,-1.10,0.35,0.35,0.35
9.81,-1.64,-1.14,0.21,0.21,0.21
9.81,-1.65,-1.18,0.07,0.21,0.21
9.84,-1.67,-1.23,0.28,0.28,0.28
9.85,-1.69,-1.23,0.49,0.49,0.49
9.81,-1.67,-1.22,0.98,0.98,0.98
9.76,-1.67,-1.23,1.19,1.47,1.40
9.67,-1.65,-1.25,1.68,1.68,1.68
9.72,-1.64,-1.29,1.96,1.96,1.96
9.77,-1.64,-1.33,2.45,2.52,2.52
9.76,-1.64,-1.35,2.94,3.43,3.43
9.71,-1.62,-1.34,3.85,3.99,3.99
9.60,-1.60,-1.33,4.76,4.83,4.83
9.51,-1.55,-1.31,5.18,5.11,5.11
9.48,-1.52,-1.30,4.97,4.97,4.90
9.42,-1.49,-1.32,4.62,4.62,4.55
9.36,-1.49,-1.29,4.20,4.20,4.13
9.35,-1.48,-1.26,3.78,3.78,3.64
9.25,-1.45,-1.21,3.64,3.57,3.57
9.25,-1.47,-1.19,3.78,3.78,3.78
9.24,-1.44,-1.21,4.20,4.20,4.20
9.32,-1.47,-1.19,4.76,4.97,4.97
9.50,-1.51,-1.19,7.84,7.84,7.91
9.56,-1.46,-1.21,8.61,8.61,8.68
9.58,-1.41,-1.18,9.03,9.03,9.10
9.60,-1.42,-1.20,8.82,8.82,8.82
9.55,-1.39,-1.14,8.40,8.40,8.40
9.53,-1.37,-1.11,7.63,7.63,7.63
9.53,-1.40,-1.11,6.79,6.65,6.65
9.57,-1.39,-1.09,5.88,5.88,5.88
9.71,-1.42,-1.12,5.11,5.04,5.04
9.84,-1.43,-1.15,4.34,4.27,4.27
9.83,-1.39,-1.11,3.64,3.64,3.57
9.85,-1.40,-1.10,2.94,2.94,2.73
9.80,-1.40,-1.10,2.03,2.03,2.03
9.88,-1.44,-1.09,0.49,0.49,0.49
10.00,-1.48,-1.12,-0.07,-0.42,-0.42
10.00,-1.49,-1.11,-0.98,-0.98,-0.98
10.02,-1.52,-1.12,-1.68,-1.68,-1.68
10.02,-1.55,-1.10,-1.96,-1.96,-1.96
9.93,-1.56,-1.04,-2.17,-2.17,-2.17
9.86,-1.59,-1.03,-1.89,-1.96,-1.96
9.70,-1.57,-1.00,-1.75,-1.68,-1.68
9.61,-1.60,-1.00,-1.47,-1.47,-1.40
9.60,-1.60,-1.02,-1.26,-1.19,-1.19
9.77,-1.66,-1.10,-0.63,-0.63,-0.63
9.73,-1.67,-1.12,0.21,0.21,0.21
9.83,-1.68,-1.19,0.98,0.98,0.98
9.81,-1.73,-1.20,1.40,1.40,1.54
9.77,-1.68,-1.19,2.17,2.17,2.17
9.76,-1.66,-1.23,2.31,2.31,2.31
9.75,-1.65,-1.29,2.24,2.24,2.24
9.50,-1.60,-1.28,1.82,1.82,1.68
9.47,-1.58,-1.30,0.84,0.84,0.70
9.51,-1.58,-1.34,0.00,0.00,-0.07
9.54,-1.58,-1.34,-0.84,-0.84,-0.84
9.57,-1.60,-1.36,-1.12,-1.12,-1.19
9.52,-1.60,-1.33,-1.61,-1.61,-1.61
9.45,-1.60,-1.30,-1.68,-1.68,-1.68
9.40,-1.61,-1.30,-1.89,-1.89,-1.89
9.39,-1.62,-1.30,-1.75,-1.75,-1.75
9.46,-1.61,-1.31,-1.47,-1.47,-1.47
9.42,-1.57,-1.29,-0.98,-0.98,-0.98
9.43,-1.58,-1.30,-0.21,0.00,0.00
9.48,-1.63,-1.33,0.49,0.70,0.70
9.51,-1.62,-1.32,1.61,1.61,1.89
9.55,-1.61,-1.28,2.80,2.80,2.87
9.55,-1.58,-1.28,3.99,3.99,4.20
9.58,-1.59,-1.27,4.97,4.97,4.97
9.56,-1.55,-1.24,6.02,6.02,6.02
9.60,-1.57,-1.24,6.51,6.72,6.72
9.53,-1.54,-1.22,7.35,7.35,7.35
9.55,-1.53,-1.21,7.49,7.49,7.49
9.55,-1.49,-1.20,7.56,7.56,7.56
9.62,-1.48,-1.23,7.21,7.21,7.21
9.69,-1.48,-1.23,6.79,6.79,6.79
9.73,-1.48,-1.24,6.51,6.51,6.51
9.75,-1.45,-1.23,5.74,5.74,5.74
9.66,-1.44,-1.18,5.18,5.18,5.18
9.61,-1.44,-1.15,4.06,4.06,4.06
9.61,-1.43,-1.18,3.22,2.94,2.94
9.71,-1.46,-1.18,1.96,1.96,2.03
9.87,-1.48,-1.23,1.12,1.12,1.12
9.86,-1.48,-1.21,0.35,0.35,0.21
9.71,-1.47,-1.19,-0.28,-0.28,-0.28
9.70,-1.52,-1.20,-1.61,-1.61,-1.61
9.61,-1.53,-1.20,-2.45,-2.45,-2.45
9.58,-1.56,-1.16,-2.80,-2.87,-2.87
9.62,-1.63,-1.18,-2.59,-2.59,-2.52
9.57,-1.66,-1.19,-1.82,-1.82,-1.82
9.52,-1.70,-1.21,-1.12,-1.12,-1.12
9.49,-1.71,-1.16,-0.42,-0.21,-0.21
9.49,-1.74,-1.16,0.70,0.70,0.91
9.53,-1.76,-1.17,2.45,2.45,2.45
9.66,-1.79,-1.19,3.92,4.13,4.13
9.65,-1.81,-1.20,6.30,6.30,6.58
9.66,-1.81,-1.20,8.19,8.19,8.54
9.65,-1.80,-1.22,9.94,9.94,10.08
9.62,-1.77,-1.19,11.34,11.34,11.76
9.73,-1.78,-1.21,12.74,12.74,12.74
9.84,-1.68,-1.28,14.21,14.21,14.21
9.85,-1.68,-1.30,14.28,14.28,14.28
9.75,-1.64,-1.27,14.28,14.28,14.28
9.70,-1.56,-1.25,13.44,13.44,13.44
9.69,-1.53,-1.26,12.67,12.67,12.39
9.68,-1.48,-1.27,11.41,11.20,10.78
9.66,-1.45,-1.29,9.45,9.24,9.24
9.61,-1.45,-1.30,7.14,7.14,6.93
9.62,-1.48,-1.29,5.88,5.39,5.39
9.55,-1.51,-1.30,4.34,4.34,4.34
9.54,-1.54,-1.30,3.22,3.22,3.08
9.57,-1.53,-1.27,2.66,2.52,2.31
9.53,-1.56,-1.26,2.03,1.96,1.96
9.55,-1.57,-1.29,1.96,1.96,1.96
9.55,-1.62,-1.29,2.52,2.45,2.45
9.56,-1.65,-1.30,3.08,3.08,3.08
9.61,-1.68,-1.30,3.71,3.71,3.71
9.57,-1.69,-1.31,4.41,4.41,4.55
9.64,-1.70,-1.34,5.53,5.53,5.53
9.53,-1.67,-1.32,5.95,5.95,5.95
9.58,-1.67,-1.35,6.16,6.09,6.09
9.50,-1.64,-1.33,6.16,6.02,6.02
9.52,-1.65,-1.32,5.95,5.95,5.88
9.52,-1.65,-1.30,5.81,5.74,5.74
9.52,-1.63,-1.32,5.53,5.46,5.46
9.57,-1.64,-1.32,4.55,4.55,4.48
9.57,-1.61,-1.32,3.57,3.57,3.43
9.60,-1.63,-1.33,2.24,2.24,2.24
9.65,-1.64,-1.35,1.40,1.05,1.05
9.71,-1.64,-1.35,0.28,0.28,-0.21
9.71,-1.64,-1.35,-0.91,-0.91,-0.91
9.65,-1.64,-1.35,-2.24,-2.24,-2.24
9.66,-1.69,-1.35,-4.55,-4.69,-4.69
9.67,-1.71,-1.35,-5.39,-5.39,-5.46
9.74,-1.76,-1.37,-5.88,-5.95,-6.02
9.67,-1.74,-1.34,-6.30,-6.30,-6.30
9.63,-1.77,-1.33,-6.65,-6.65,-6.65
9.59,-1.77,-1.27,-6.93,-6.79,-6.79
9.58,-1.76,-1.28,-6.93,-6.93,-6.93
9.57,-1.80,-1.25,-6.72,-6.79,-6.79
9.52,-1.76,-1.27,-6.23,-6.23,-6.23
9.60,-1.78,-1.29,-5.95,-5.95,-5.95
9.63,-1.74,-1.30,-5.32,-5.32,-5.32
9.69,-1.74,-1.26,-5.04,-4.76,-4.76
9.65,-1.72,-1.24,-4.41,-4.41,-4.41
9.67,-1.71,-1.26,-4.06,-4.06,-4.06
9.72,-1.69,-1.25,-3.78,-3.78,-3.78
9.76,-1.65,-1.28,-3.71,-3.64,-3.64
9.71,-1.63,-1.24,-3.64,-3.64,-3.64
9.62,-1.59,-1.23,-3.57,-3.50,-3.50
9.58,-1.59,-1.22,-3.78,-3.78,-3.78
9.56,-1.56,-1.21,-3.92,-3.92,-3.92
9.57,-1.58,-1.22,-3.85,-3.78,-3.78
9.61,-1.57,-1.23,-3.57,-3.50,-3.50
9.59,-1.56,-1.24,-3.29,-3.29,-3.22
9.55,-1.56,-1.26,-3.15,-3.15,-3.15
9.61,-1.56,-1.23,-3.01,-2.87,-2.87
9.73,-1.58,-1.27,-2.52,-2.52,-2.52
9.75,-1.62,-1.29,-1.75,-1.54,-1.54
9.73,-1.57,-1.27,-0.70,-0.70,-0.70
9.74,-1.57,-1.30,-0.42,-0.35,-0.35
9.72,-1.57,-1.28,-0.21,-0.21,-0.21
9.65,-1.55,-1.26,0.14,0.14,0.28
9.65,-1.53,-1.30,0.42,0.49,0.49
9.63,-1.53,-1.28,0.56,0.56,0.63
9.58,-1.54,-1.30,0.28,0.28,0.28
9.60,-1.53,-1.31,0.07,-0.14,-0.14
9.60,-1.55,-1.33,-0.42,-0.56,-0.56
9.60,-1.54,-1.32,-0.77,-0.84,-0.84
9.55,-1.53,-1.33,-1.12,-1.12,-1.12
9.51,-1.53,-1.29,-1.33,-1.33,-1.33
9.45,-1.56,-1.31,-1.61,-1.61,-1.61
9.46,-1.57,-1.32,-1.89,-1.89,-1.89
9.47,-1.56,-1.33,-1.89,-1.89,-1.89
9.60,-1.57,-1.37,-2.66,-2.59,-2.59
9.92,-1.62,-1.46,-3.29,-3.29,-3.29
10.04,-1.67,-1.46,-3.99,-3.99,-3.99
9.93,-1.67,-1.38,-4.34,-4.34,-4.20
9.69,-1.69,-1.33,-4.62,-4.62,-4.83
9.45,-1.66,-1.32,-5.60,-5.60,-5.60
9.36,-1.64,-1.28,-6.44,-6.44,-6.44
9.27,-1.63,-1.26,-6.65,-6.65,-6.65
9.27,-1.64,-1.24,-6.58,-6.51,-6.51
9.38,-1.70,-1.24,-6.23,-6.23,-5.95
9.60,-1.78,-1.33,-5.32,-5.04,-5.04
9.72,-1.84,-1.29,-3.22,-2.94,-2.94
9.73,-1.86,-1.28,-1.40,-1.40,-1.40
9.77,-1.84,-1.27,0.84,0.84,0.98
9.77,-1.84,-1.29,3.15,3.15,3.15
9.78,-1.77,-1.28,4.34,4.69,4.69
9.73,-1.69,-1.31,5.60,5.60,5.88
9.73,-1.65,-1.31,6.30,6.30,6.30
9.61,-1.56,-1.26,6.58,6.58,6.58
9.60,-1.52,-1.26,6.37,6.37,6.37
9.57,-1.45,-1.26,4.83,4.69,4.69
9.63,-1.44,-1.26,3.99,3.71,3.57
9.61,-1.45,-1.23,2.87,2.94,2.94
9.65,-1.42,-1.26,1.89,1.89,1.82
9.57,-1.40,-1.31,-1.05,-1.05,-1.05
9.78,-1.44,-1.34,-2.24,-2.24,-2.24
9.92,-1.46,-1.33,-3.15,-3.15,-3.15
9.90,-1.52,-1.34,-3.50,-3.50,-3.71
9.74,-1.52,-1.31,-4.06,-4.06,-4.06
9.66,-1.51,-1.29,-4.62,-4.55,-4.55
9.60,-1.49,-1.28,-5.18,-5.18,-5.18
9.51,-1.48,-1.27,-6.09,-6.09,-6.23
9.53,-1.50,-1.31,-6.44,-6.44,-6.44
9.62,-1.52,-1.38,-6.44,-6.44,-6.37
9.68,-1.58,-1.35,-6.37,-6.37,-6.16
9.67,-1.61,-1.34,-6.09,-5.95,-5.88
9.64,-1.62,-1.33,-5.53,-5.53,-5.18
9.61,-1.61,-1.31,-4.69,-4.69,-4.41
9.53,-1.60,-1.29,-3.01,-3.01,-2.87
9.47,-1.56,-1.28,-1.89,-1.89,-1.89
9.44,-1.56,-1.24,-1.05,-1.05,-1.05
9.40,-1.54,-1.25,0.00,0.00,0.00
9.45,-1.55,-1.25,0.84,0.84,0.84
9.55,-1.55,-1.27,1.82,1.82,1.82
9.52,-1.52,-1.23,2.80,2.87,2.87
9.48,-1.52,-1.23,3.85,3.85,3.99
9.46,-1.48,-1.23,4.48,4.48,4.62
9.49,-1.46,-1.22,5.11,5.11,5.11
9.55,-1.44,-1.22,5.60,5.60,5.60
9.66,-1.46,-1.24,6.02,6.16,6.16
9.65,-1.46,-1.22,6.93,6.93,7.14
9.56,-1.44,-1.15,7.84,7.84,7.84
9.45,-1.39,-1.04,9.24,9.24,9.24
9.37,-1.40,-1.02,10.43,10.43,10.43
9.39,-1.39,-1.04,11.55,11.55,11.55
9.56,-1.40,-1.08,13.16,13.16,13.16
9.70,-1.38,-1.09,14.28,14.28,14.49
9.85,-1.41,-1.13,15.61,15.61,15.61
9.88,-1.37,-1.15,16.10,16.10,16.10
9.82,-1.36,-1.14,16.45,16.45,16.45
9.76,-1.35,-1.14,15.82,15.82,15.75
9.78,-1.35,-1.16,15.19,14.91,14.91
9.77,-1.32,-1.22,14.07,14.07,14.07
9.70,-1.36,-1.20,13.93,13.93,13.86
9.56,-1.43,-1.15,14.35,14.35,14.35
9.50,-1.43,-1.15,15.05,15.05,15.12
9.60,-1.56,-1.16,16.52,16.52,16.52
9.58,-1.64,-1.14,19.04,19.04,19.04
9.57,-1.72,-1.15,23.38,23.38,23.38
9.51,-1.76,-1.16,27.09,27.09,27.09
9.48,-1.80,-1.16,31.01,31.01,31.01
9.48,-1.85,-1.16,34.02,35.14,35.14
9.50,-1.89,-1.20,38.36,38.36,39.55
9.52,-1.93,-1.22,42.91,42.91,44.03
9.53,-1.97,-1.27,47.32,47.32,47.32
9.52,-2.02,-1.32,52.85,52.85,52.85
9.47,-2.02,-1.36,55.58,55.58,56.14
9.36,-2.03,-1.37,59.71,59.71,59.71
9.23,-2.02,-1.40,63.07,63.42,63.42
9.07,-1.99,-1.42,65.24,65.24,65.31
9.22,-2.03,-1.56,66.85,66.85,66.85
9.45,-2.05,-1.61,66.29,66.29,66.29
9.73,-2.15,-1.71,65.45,65.45,65.17
9.95,-2.23,-1.75,64.47,64.47,64.19
9.96,-2.33,-1.79,63.28,63.21,63.21
9.94,-2.35,-1.83,61.74,61.74,61.60
10.04,-2.37,-1.88,59.43,59.43,59.08
10.29,-2.44,-1.94,56.98,56.14,55.86
10.49,-2.49,-2.00,53.62,53.62,52.29
10.50,-2.56,-2.02,50.47,50.47,50.12
10.30,-2.57,-1.94,47.04,47.04,47.04
10.07,-2.49,-1.88,43.61,43.61,43.61
10.02,-2.42,-1.84,38.99,38.99,38.99
9.88,-2.39,-1.77,34.72,34.72,34.72
9.87,-2.39,-1.76,28.63,28.63,28.63
9.93,-2.45,-1.76,24.57,24.57,24.57
9.87,-2.51,-1.78,22.54,22.05,22.05
9.80,-2.55,-1.78,20.58,20.58,20.44
9.58,-2.54,-1.73,19.11,19.11,19.11
9.43,-2.57,-1.68,18.27,18.27,18.27
9.23,-2.52,-1.57,18.20,18.20,18.20
9.18,-2.52,-1.46,19.39,19.39,19.39
9.10,-2.57,-1.40,21.00,21.63,21.63
9.22,-2.68,-1.39,23.52,24.15,24.15
9.30,-2.79,-1.35,28.98,29.75,29.75
9.25,-2.81,-1.30,34.65,35.49,35.49
9.22,-2.83,-1.28,39.55,40.25,40.25
9.31,-2.83,-1.26,48.16,49.14,49.14
9.29,-2.84,-1.26,56.00,57.12,57.12
9.33,-2.85,-1.33,63.49,64.47,64.47
9.38,-2.87,-1.50,74.48,74.48,75.60
9.68,-2.82,-1.74,88.97,88.97,91.70
9.63,-2.73,-1.80,97.51,97.51,97.51
9.54,-2.67,-1.87,103.95,103.95,103.95
9.46,-2.56,-1.89,107.10,107.10,107.59
9.42,-2.47,-1.86,110.18,110.18,110.18
9.42,-2.35,-1.90,111.02,110.95,110.95
9.45,-2.26,-1.89,110.81,110.81,110.53
9.55,-2.17,-2.00,108.43,108.43,108.43
9.61,-2.06,-2.10,103.67,103.67,103.67
9.65,-1.92,-2.15,97.72,96.88,96.88
9.63,-1.82,-2.19,84.21,82.18,82.18
9.52,-1.79,-2.13,75.81,75.81,72.66
9.46,-1.80,-2.02,65.24,65.24,64.19
9.53,-1.84,-2.02,57.12,56.28,56.28
9.54,-1.87,-1.97,49.77,49.77,48.09
9.43,-1.81,-1.86,41.79,41.79,41.79
9.43,-1.79,-1.87,36.68,36.12,36.12
9.62,-1.77,-1.95,30.94,30.17,30.17
10.10,-1.69,-2.09,20.72,19.60,19.25
10.22,-1.28,-1.93,8.47,7.98,7.98
10.09,-1.17,-1.84,5.95,4.97,4.97
9.83,-1.01,-1.69,3.57,2.94,2.94
9.52,-0.85,-1.56,1.89,1.75,1.75
9.23,-0.73,-1.47,0.98,0.91,0.91
8.86,-0.62,-1.36,-0.14,-0.14,-0.35
8.67,-0.57,-1.29,-1.89,-1.89,-2.17
8.53,-0.48,-1.24,-3.57,-3.57,-3.78
8.47,-0.47,-1.12,-5.60,-5.60,-5.60
8.45,-0.46,-1.00,-7.21,-8.05,-8.05
8.50,-0.50,-0.98,-9.59,-9.87,-10.57
8.68,-0.59,-1.00,-12.25,-12.53,-12.53
9.00,-0.78,-1.08,-15.47,-15.75,-15.75
9.38,-0.87,-1.15,-17.29,-17.29,-17.29
9.81,-0.97,-1.33,-20.02,-20.23,-20.23
9.94,-1.05,-1.36,-21.70,-21.70,-22.75
9.93,-1.12,-1.35,-25.27,-25.27,-25.62
9.90,-1.12,-1.34,-29.89,-29.89,-29.89
9.82,-1.14,-1.36,-33.46,-33.46,-34.86
9.73,-1.13,-1.34,-39.06,-39.06,-39.06
9.64,-1.16,-1.28,-46.27,-46.27,-46.27
9.44,-1.18,-1.17,-50.61,-50.61,-52.01
9.30,-1.29,-1.13,-56.84,-57.47,-57.47
9.31,-1.42,-1.14,-63.07,-63.07,-63.70
9.37,-1.56,-1.22,-67.27,-67.90,-67.90
9.60,-1.83,-1.35,-75.46,-76.30,-76.30
9.68,-1.97,-1.28,-79.45,-79.73,-79.73
9.67,-2.07,-1.20,-83.09,-83.09,-83.37
9.59,-2.20,-1.13,-84.91,-84.91,-85.12
9.58,-2.38,-1.08,-86.73,-86.73,-86.73
9.64,-2.48,-1.05,-87.22,-87.22,-87.22
9.70,-2.63,-0.99,-87.22,-87.01,-86.94
9.78,-2.78,-0.97,-86.03,-85.82,-85.33
9.84,-2.88,-1.04,-84.00,-83.72,-83.72
10.20,-2.97,-1.27,-81.41,-81.13,-81.13
10.59,-3.05,-1.44,-80.08,-79.80,-79.80
10.61,-3.10,-1.39,-78.68,-77.91,-77.91
10.11,-3.07,-1.12,-74.83,-74.83,-74.83
9.52,-3.02,-0.98,-70.49,-70.07,-70.07
9.15,-3.02,-1.03,-68.04,-67.76,-67.76
9.25,-3.01,-1.30,-67.13,-67.13,-67.06
9.53,-3.02,-1.44,-67.41,-67.48,-67.62
10.00,-3.09,-1.52,-67.83,-67.97,-68.04
10.24,-3.05,-1.51,-68.04,-68.04,-68.25
10.20,-3.00,-1.42,-68.32,-68.32,-68.25
10.04,-2.94,-1.29,-69.09,-69.09,-69.30
9.79,-2.86,-1.20,-70.98,-70.98,-71.19
9.70,-2.85,-1.21,-73.01,-73.01,-73.01
9.78,-2.83,-1.30,-75.74,-75.88,-75.88
9.95,-2.82,-1.31,-77.00,-77.21,-77.21
10.05,-2.89,-1.40,-78.33,-78.40,-78.40
10.06,-2.95,-1.42,-78.33,-78.19,-78.19
9.91,-2.97,-1.42,-77.49,-77.28,-77.28
9.79,-2.98,-1.38,-75.95,-75.74,-75.74
9.54,-2.93,-1.34,-74.55,-73.78,-73.78
9.34,-2.94,-1.19,-72.10,-71.68,-71.68
9.24,-2.93,-1.08,-67.76,-67.27,-67.27
9.25,-2.90,-1.04,-63.70,-63.07,-63.07
9.36,-2.84,-1.03,-59.22,-59.22,-58.66
9.43,-2.81,-1.01,-55.37,-54.67,-54.67
9.63,-2.72,-1.10,-47.25,-47.25,-46.90
9.89,-2.72,-1.29,-43.12,-43.12,-43.12
10.22,-2.72,-1.41,-40.11,-40.11,-40.11
10.32,-2.71,-1.39,-38.08,-38.08,-37.59
10.36,-2.60,-1.31,-34.58,-34.58,-34.58
10.30,-2.48,-1.22,-32.34,-31.99,-31.99
10.15,-2.07,-0.85,-24.78,-24.78,-24.43
9.97,-1.96,-0.73,-20.23,-20.23,-20.23
9.64,-1.71,-0.65,-17.50,-16.59,-16.59
9.25,-1.51,-0.57,-14.14,-14.14,-13.79
9.04,-1.33,-0.63,-11.34,-11.34,-11.34
8.96,-1.24,-0.67,-10.50,-10.22,-10.22
9.13,-1.16,-0.75,-9.52,-9.52,-9.52
9.32,-1.10,-0.75,-8.75,-8.75,-8.75
9.73,-0.91,-0.85,-7.07,-7.07,-7.07
9.95,-0.84,-0.90,-5.88,-5.67,-5.67
10.03,-0.75,-0.95,-4.27,-4.27,-4.27
10.01,-0.62,-0.98,-3.15,-2.66,-2.66
9.69,-0.47,-0.93,-1.40,-0.91,-0.91
9.38,-0.35,-0.96,0.35,0.35,0.35
9.20,-0.31,-0.97,0.35,0.35,0.35
9.07,-0.28,-1.00,-0.35,-0.35,-0.35
8.92,-0.29,-0.96,-1.19,-1.19,-1.19
8.88,-0.29,-0.95,-1.26,-1.19,-1.19
9.06,-0.34,-1.03,-1.12,-1.12,-1.12
9.33,-0.44,-1.18,-2.10,-2.10,-2.10
9.55,-0.45,-1.22,-2.80,-2.80,-2.80
9.69,-0.51,-1.22,-3.29,-3.29,-3.29
9.60,-0.55,-1.19,-3.43,-3.43,-3.43
9.38,-0.56,-1.13,-3.64,-3.64,-3.64
9.19,-0.58,-1.12,-4.34,-4.34,-4.34
9.16,-0.63,-1.12,-5.88,-5.88,-5.88
9.26,-0.63,-1.06,-6.86,-7.00,-7.00
9.37,-0.67,-1.04,-8.26,-8.26,-8.40
9.53,-0.73,-1.04,-9.17,-9.38,-9.38
9.84,-0.67,-0.94,-10.50,-11.06,-11.06
10.06,-0.48,-0.77,-13.09,-13.86,-13.86
10.23,-0.28,-0.60,-16.80,-17.99,-17.99
10.41,-0.13,-0.41,-21.98,-21.98,-23.59
10.49,0.14,-0.25,-28.35,-28.35,-30.10
10.74,0.25,-0.23,-35.56,-35.56,-37.52
10.73,0.03,-0.33,-42.56,-42.56,-42.56
10.41,-0.46,-0.58,-47.18,-47.18,-47.53
9.29,-1.86,-0.43,-40.39,-40.39,-39.55
9.07,-2.12,-0.51,-31.71,-31.71,-31.71
9.23,-2.21,-0.57,-26.25,-26.25,-26.25
9.63,-2.48,-1.07,-14.84,-14.84,-14.84
9.93,-2.47,-1.19,-6.16,-6.16,-6.16
10.01,-2.46,-1.19,-0.84,-0.84,-0.28
9.76,-2.39,-1.18,6.02,6.02,6.16
9.66,-2.34,-1.17,7.56,7.56,7.56
9.71,-2.29,-1.17,8.26,8.26,8.26
9.71,-2.29,-1.18,8.82,8.82,8.82
9.69,-2.26,-1.17,9.17,9.17,9.10
9.59,-2.23,-1.11,9.31,9.24,9.24
9.55,-2.22,-1.11,8.96,8.89,8.89
9.67,-2.25,-1.14,8.75,8.75,8.68
9.88,-2.30,-1.19,8.82,8.82,8.82
10.02,-2.34,-1.24,9.38,9.38,9.45
10.06,-2.37,-1.25,9.94,9.94,9.94
10.07,-2.35,-1.28,10.29,10.29,10.29
10.11,-2.35,-1.34,10.08,10.08,10.08
10.13,-2.34,-1.35,9.87,9.87,9.87
10.01,-2.31,-1.36,10.43,10.43,10.43
9.84,-2.24,-1.35,10.85,10.85,10.85
9.65,-2.20,-1.33,10.99,10.85,10.85
9.54,-2.12,-1.35,10.64,10.64,10.64
9.44,-2.08,-1.38,10.01,10.01,10.01
9.54,-2.08,-1.45,9.03,9.03,9.03
9.41,-2.04,-1.41,8.61,8.61,8.47
9.38,-2.03,-1.39,7.91,7.91,7.91
9.33,-2.04,-1.37,7.56,7.56,7.42
9.37,-2.04,-1.42,7.35,7.35,7.28
9.36,-1.96,-1.39,7.21,7.21,7.21
9.51,-1.88,-1.41,6.86,6.86,6.86
9.58,-1.73,-1.43,6.09,5.81,5.81
9.77,-1.64,-1.50,4.41,4.27,4.27
9.81,-1.56,-1.53,1.54,1.54,1.54
9.83,-1.46,-1.48,-1.89,-2.17,-2.17
9.78,-1.41,-1.40,-4.69,-4.97,-4.97
9.82,-1.29,-1.36,-6.58,-6.79,-6.79
9.70,-1.21,-1.30,-9.24,-9.45,-9.45
9.58,-1.18,-1.23,-11.13,-11.34,-11.34
9.49,-1.21,-1.23,-12.32,-12.46,-12.46
9.45,-1.23,-1.23,-13.65,-13.79,-13.79
9.45,-1.25,-1.24,-14.00,-14.00,-14.00
9.49,-1.28,-1.21,-13.72,-13.44,-13.44
9.56,-1.05,-1.23,-13.02,-13.02,-13.02
9.59,-0.78,-1.15,-13.37,-13.44,-13.44
9.72,-0.42,-1.11,-14.91,-14.91,-15.12
9.93,-0.22,-1.08,-16.87,-17.50,-17.85
9.97,-0.34,-1.08,-20.44,-20.44,-20.44
9.95,-0.63,-1.21,-22.54,-22.54,-22.75
9.91,-1.08,-1.34,-23.38,-23.38,-23.38
9.83,-1.34,-1.40,-22.68,-22.68,-22.68
9.55,-1.59,-1.37,-20.79,-20.79,-20.79
9.31,-1.73,-1.33,-17.92,-17.92,-17.92
8.86,-1.80,-1.26,-15.40,-15.40,-15.40
8.75,-1.83,-1.28,-13.09,-12.74,-12.32
8.66,-1.82,-1.27,-11.20,-10.99,-10.43
8.70,-1.89,-1.33,-8.82,-8.82,-8.82
8.80,-1.95,-1.43,-6.16,-6.16,-6.16
8.99,-1.99,-1.47,-4.34,-3.85,-3.85
9.24,-2.02,-1.56,-1.96,-1.96,-1.26
9.42,-2.04,-1.64,0.28,0.28,0.91
9.62,-2.07,-1.67,2.24,2.24,2.24
9.70,-2.08,-1.67,4.34,4.48,4.48
9.63,-2.11,-1.65,6.02,6.23,6.23
9.61,-2.13,-1.64,7.63,7.77,7.77
9.66,-2.14,-1.68,9.73,9.73,10.01
9.75,-2.16,-1.69,11.06,11.06,11.41
9.86,-2.19,-1.73,13.37,13.37,13.58
9.83,-2.21,-1.74,15.33,15.33,15.61
9.81,-2.23,-1.71,17.08,17.08,17.36
9.72,-2.21,-1.74,19.39,19.39,19.39
9.68,-2.17,-1.81,20.30,20.37,20.37
9.70,-2.14,-1.90,20.51,20.51,20.51
9.73,-2.12,-1.95,19.95,19.95,19.88
9.81,-2.09,-1.95,18.90,18.90,18.90
10.02,-2.12,-2.03,17.36,17.36,17.08
10.10,-2.13,-1.99,14.84,14.84,14.84
10.05,-2.13,-1.95,13.02,13.02,13.02
9.88,-2.13,-1.91,11.27,10.43,10.43
9.66,-2.10,-1.82,8.40,8.40,8.40
9.60,-2.05,-1.83,5.53,5.53,5.25
9.63,-2.11,-1.96,-2.31,-2.31,-2.52
9.66,-2.14,-2.00,-3.64,-3.64,-3.64
9.65,-2.17,-2.03,-4.06,-4.34,-4.34
9.63,-2.15,-2.06,-4.97,-5.11,-5.11
9.59,-2.16,-2.01,-5.53,-5.53,-5.67
9.51,-2.22,-2.01,-5.60,-5.60,-5.60
9.41,-2.26,-1.97,-4.90,-4.69,-4.69
9.35,-2.23,-1.96,-3.78,-3.50,-3.50
9.29,-2.23,-1.94,-2.24,-2.24,-2.24
9.28,-2.21,-1.96,-0.98,-0.63,-0.63
9.32,-2.22,-2.01,0.70,0.70,1.47
9.26,-2.19,-1.98,2.87,2.87,3.29
9.24,-2.17,-1.96,5.18,5.18,5.18
9.15,-2.15,-1.97,6.58,6.58,6.58
9.21,-2.13,-1.95,7.98,8.19,8.19
9.29,-2.16,-1.90,9.31,9.31,9.31
9.34,-2.21,-1.92,10.71,10.85,10.85
9.37,-2.16,-1.88,11.83,12.04,12.04
9.36,-2.15,-1.85,12.95,12.95,13.16
9.39,-2.12,-1.85,13.44,13.44,13.44
9.45,-2.09,-1.84,13.16,13.16,13.16
9.49,-2.06,-1.82,12.60,12.60,12.46
9.44,-2.01,-1.76,12.04,12.04,12.04
9.35,-1.96,-1.73,11.06,11.06,11.06
9.37,-1.95,-1.74,9.59,9.59,9.38
9.36,-1.92,-1.73,7.77,7.77,7.28
9.32,-1.92,-1.68,5.81,5.81,5.81
9.25,-1.87,-1.62,4.13,4.06,4.06
9.18,-1.83,-1.58,3.08,2.52,2.52
9.10,-1.85,-1.56,1.61,1.12,1.05
9.07,-1.84,-1.53,-0.28,-0.49,-0.49
9.15,-1.85,-1.51,-1.68,-1.68,-1.82
9.25,-1.90,-1.54,-1.96,-1.96,-2.10
9.40,-1.95,-1.57,-1.82,-1.82,-1.82
9.49,-1.94,-1.56,-0.98,-0.98,-0.98
9.57,-1.94,-1.56,-0.49,-0.49,-0.49
9.68,-1.96,-1.56,0.14,0.42,0.42
9.78,-1.97,-1.57,1.05,1.05,1.19
9.81,-1.97,-1.56,2.17,2.17,2.17
9.83,-1.96,-1.54,2.87,2.87,2.87
9.98,-1.92,-1.55,4.41,4.62,4.62
9.96,-1.89,-1.53,5.81,6.02,6.02
9.85,-1.85,-1.48,7.00,7.00,7.00
9.71,-1.79,-1.46,7.35,7.42,7.42
9.63,-1.76,-1.45,7.49,7.49,7.49
9.59,-1.72,-1.43,7.28,7.28,7.21
9.55,-1.71,-1.42,7.35,7.35,7.42
9.59,-1.72,-1.45,7.35,7.35,7.35
9.61,-1.70,-1.49,7.35,7.42,7.42
9.68,-1.68,-1.51,7.42,7.42,7.42
9.54,-1.66,-1.47,7.56,7.56,7.56
9.58,-1.67,-1.53,7.63,7.63,7.63
9.67,-1.69,-1.53,7.91,7.91,7.91
9.74,-1.71,-1.59,8.47,8.47,8.47
9.49,-1.67,-1.56,9.80,9.80,9.80
9.54,-1.65,-1.61,9.66,9.59,9.59
9.66,-1.71,-1.66,9.45,9.45,9.45
9.80,-1.74,-1.71,9.45,9.45,9.45
9.64,-1.75,-1.67,9.73,9.80,9.80
9.60,-1.70,-1.64,9.94,9.73,9.73
9.70,-1.69,-1.68,9.03,9.03,9.03
9.55,-1.67,-1.64,8.75,8.75,8.75
9.50,-1.64,-1.61,8.96,9.03,8.89
9.42,-1.64,-1.57,8.68,8.68,8.61
9.50,-1.61,-1.56,8.12,8.12,8.12
9.36,-1.63,-1.52,7.77,7.77,7.77
9.46,-1.62,-1.51,7.35,7.35,7.35
9.47,-1.62,-1.55,6.86,6.86,6.86
9.47,-1.61,-1.47,6.44,6.44,6.44
9.55,-1.61,-1.53,5.81,5.81,5.81
9.51,-1.59,-1.53,5.04,5.04,5.04
9.64,-1.64,-1.54,4.27,4.27,4.27
9.58,-1.64,-1.53,3.71,3.71,3.71
9.48,-1.60,-1.47,3.15,3.15,3.15
9.49,-1.57,-1.46,2.03,2.03,2.03
9.41,-1.60,-1.47,0.91,0.91,0.91
9.42,-1.60,-1.46,0.00,-0.21,-0.21
9.41,-1.60,-1.43,-0.77,-1.12,-1.12
9.43,-1.60,-1.46,-1.75,-2.17,-2.17
9.40,-1.60,-1.47,-3.29,-3.29,-3.29
9.41,-1.58,-1.44,-4.62,-4.62,-4.97
9.45,-1.62,-1.47,-5.81,-5.81,-5.81
9.54,-1.65,-1.48,-7.00,-7.00,-7.00
9.56,-1.67,-1.49,-7.77,-7.84,-7.84
9.59,-1.65,-1.46,-8.61,-8.61,-8.61
9.56,-1.66,-1.47,-9.73,-9.66,-9.66
9.51,-1.67,-1.45,-10.29,-10.36,-10.36
9.53,-1.68,-1.46,-11.13,-11.13,-11.13
9.54,-1.70,-1.42,-11.41,-11.41,-11.41
9.56,-1.73,-1.44,-11.34,-11.34,-11.34
9.52,-1.72,-1.39,-10.92,-10.92,-10.92
9.48,-1.75,-1.39,-10.50,-10.50,-10.50
9.48,-1.74,-1.36,-9.80,-9.66,-9.66
9.48,-1.79,-1.38,-8.54,-8.54,-8.40
9.58,-1.83,-1.40,-7.42,-7.07,-7.07
9.66,-1.83,-1.39,-5.53,-5.53,-4.69
9.70,-1.86,-1.39,-0.42,-0.42,-0.42
9.72,-1.84,-1.37,1.96,1.96,1.96
9.74,-1.83,-1.37,3.99,3.99,3.99
9.73,-1.79,-1.36,6.65,6.65,6.65
9.73,-1.76,-1.36,9.17,9.73,9.73
9.73,-1.75,-1.34,11.13,11.55,11.55
9.73,-1.70,-1.34,12.88,13.16,13.16
9.74,-1.64,-1.36,13.93,14.07,14.07
9.72,-1.60,-1.39,14.63,14.63,14.77
9.77,-1.57,-1.40,14.98,15.05,15.05
9.76,-1.54,-1.45,14.84,14.84,14.98
9.77,-1.48,-1.43,14.28,14.28,14.21
9.74,-1.42,-1.43,12.88,12.88,12.88
9.79,-1.40,-1.45,10.92,10.92,10.71
9.77,-1.40,-1.45,9.45,9.17,9.17
9.74,-1.40,-1.49,7.42,7.42,7.35
9.77,-1.40,-1.52,4.83,4.83,4.83
9.76,-1.44,-1.54,2.59,2.59,2.59
9.71,-1.43,-1.53,0.49,0.49,0.49
9.62,-1.45,-1.50,-1.47,-1.47,-1.47
9.56,-1.45,-1.51,-4.41,-4.41,-4.41
9.49,-1.48,-1.55,-6.16,-6.16,-6.16
9.53,-1.55,-1.56,-8.61,-8.61,-8.61
9.53,-1.57,-1.58,-10.01,-10.01,-10.01
9.59,-1.65,-1.59,-10.99,-10.99,-10.99
9.64,-1.69,-1.60,-11.55,-11.55,-11.55
9.59,-1.72,-1.61,-11.55,-11.55,-11.55
9.55,-1.76,-1.60,-11.41,-11.41,-11.41
9.49,-1.78,-1.59,-10.71,-10.71,-10.71
9.44,-1.78,-1.53,-9.87,-9.66,-9.66
9.34,-1.80,-1.52,-9.10,-8.96,-8.96
9.23,-1.81,-1.49,-7.70,-7.49,-7.49
9.26,-1.83,-1.48,-6.58,-6.58,-6.44
9.31,-1.87,-1.50,-4.69,-4.69,-4.69
9.41,-1.92,-1.49,-2.80,-2.80,-2.80
9.44,-1.93,-1.49,-0.21,-0.21,0.00
9.47,-1.93,-1.51,2.17,2.17,2.45
9.51,-1.92,-1.50,4.97,4.97,4.97
9.50,-1.92,-1.51,6.58,7.00,7.00
9.52,-1.90,-1.47,8.68,8.68,8.68
9.59,-1.85,-1.53,9.73,9.87,9.87
9.62,-1.82,-1.49,10.99,10.99,11.06
9.62,-1.74,-1.46,11.55,11.55,11.62
9.59,-1.73,-1.47,11.83,11.83,11.83
9.63,-1.69,-1.45,11.83,11.69,11.69
9.59,-1.64,-1.42,11.55,11.55,11.27
9.59,-1.62,-1.44,10.78,10.78,10.78
9.57,-1.56,-1.40,9.66,9.66,9.66
9.56,-1.57,-1.44,8.75,8.40,8.40
9.55,-1.54,-1.41,7.42,7.42,7.00
9.64,-1.55,-1.43,5.88,5.88,5.46
9.61,-1.52,-1.40,4.48,4.48,4.13
9.59,-1.50,-1.39,3.08,3.08,3.08
9.65,-1.55,-1.44,0.91,0.91,0.91
9.76,-1.56,-1.46,-0.35,-0.35,-0.35
9.75,-1.58,-1.46,-1.26,-1.26,-1.26
9.77,-1.63,-1.46,-2.10,-2.24,-2.24
9.73,-1.67,-1.46,-2.94,-2.94,-2.94
9.65,-1.68,-1.45,-3.64,-3.64,-3.64
9.61,-1.69,-1.45,-4.34,-4.34,-4.34
9.62,-1.69,-1.49,-4.62,-4.62,-4.62
9.65,-1.74,-1.53,-4.41,-4.41,-4.41
9.68,-1.78,-1.54,-4.06,-3.78,-3.78
9.68,-1.80,-1.54,-3.22,-3.22,-3.15
9.64,-1.80,-1.53,-2.59,-2.59,-2.45
9.69,-1.83,-1.57,-1.82,-1.82,-1.68
9.69,-1.85,-1.53,-0.84,-0.35,-0.14
9.63,-1.88,-1.54,0.91,0.91,1.61
9.59,-1.85,-1.52,2.59,2.59,2.94
9.52,-1.83,-1.53,3.92,4.13,4.13
9.55,-1.85,-1.56,5.39,5.39,5.60
9.52,-1.80,-1.54,6.58,6.58,6.72
9.49,-1.78,-1.55,8.19,8.19,8.19
9.51,-1.75,-1.55,8.96,9.03,9.03
9.50,-1.75,-1.57,9.73,9.80,9.80
9.51,-1.71,-1.57,10.29,10.43,10.43
9.55,-1.71,-1.60,10.43,10.43,10.50
9.51,-1.68,-1.56,10.29,10.29,10.22
9.49,-1.67,-1.56,10.08,10.08,9.94
9.60,-1.67,-1.60,9.17,9.17,9.17
9.55,-1.67,-1.59,8.54,8.26,8.26
9.53,-1.66,-1.60,7.63,7.49,7.49
9.50,-1.64,-1.59,5.39,5.39,5.25
9.52,-1.67,-1.60,3.85,3.85,3.85
9.58,-1.65,-1.62,2.31,2.31,2.24
9.51,-1.68,-1.60,1.47,1.47,1.19
9.53,-1.68,-1.61,0.21,0.21,0.21
9.48,-1.68,-1.58,-0.77,-0.98,-0.98
9.41,-1.68,-1.57,-1.75,-1.75,-1.96
9.39,-1.70,-1.56,-2.66,-2.66,-2.80
9.42,-1.76,-1.59,-3.43,-3.43,-3.43
9.40,-1.79,-1.53,-3.50,-3.50,-3.50
9.41,-1.82,-1.55,-3.29,-3.22,-3.22
9.47,-1.83,-1.54,-2.80,-2.80,-2.80
9.41,-1.82,-1.55,-2.24,-2.17,-2.17
9.49,-1.88,-1.53,-1.68,-1.68,-1.47
9.48,-1.87,-1.51,-0.56,-0.56,-0.28
9.39,-1.88,-1.50,0.77,0.77,0.77
9.38,-1.85,-1.50,1.19,1.19,1.19
9.39,-1.84,-1.48,1.54,1.54,1.54
9.48,-1.84,-1.49,2.17,2.38,2.38
9.55,-1.83,-1.49,2.52,2.73,2.73
9.54,-1.81,-1.50,2.80,2.80,2.80
9.57,-1.82,-1.51,2.73,2.73,2.73
9.59,-1.81,-1.51,2.59,2.59,2.59
9.70,-1.80,-1.52,2.17,2.17,2.17
9.66,-1.77,-1.49,2.10,2.10,2.10
9.65,-1.75,-1.51,1.82,1.82,1.82
9.62,-1.77,-1.50,1.33,1.33,1.33
9.54,-1.74,-1.48,1.33,1.33,1.33
9.45,-1.77,-1.44,1.12,1.12,1.12
9.50,-1.77,-1.48,1.26,1.26,1.26
9.46,-1.78,-1.46,1.47,1.47,1.47
9.52,-1.77,-1.46,1.61,1.82,1.82
9.43,-1.77,-1.44,2.24,2.24,2.38
9.49,-1.79,-1.44,2.73,2.73,2.73
9.38,-1.78,-1.36,3.50,3.64,3.64
9.18,-1.78,-1.34,4.48,4.55,4.55
9.36,-1.78,-1.42,4.97,4.90,4.90
9.60,-1.80,-1.49,5.04,5.04,5.11
9.79,-1.82,-1.51,5.74,5.74,5.88
9.76,-1.80,-1.46,6.72,7.00,7.00
9.63,-1.79,-1.40,7.84,7.91,7.91
9.47,-1.74,-1.32,9.03,9.03,9.03
9.20,-1.69,-1.27,9.66,9.66,9.66
9.13,-1.57,-1.25,9.94,9.94,9.94
9.35,-1.58,-1.30,9.73,9.87,9.87
9.55,-1.60,-1.37,9.38,9.38,9.52
9.67,-1.59,-1.36,9.80,9.94,10.22
9.69,-1.59,-1.29,11.06,11.06,11.06
9.70,-1.54,-1.27,11.62,11.62,11.62
9.76,-1.38,-1.22,11.06,10.99,10.99
9.85,-1.37,-1.32,10.22,10.22,10.22
9.98,-1.53,-1.44,9.80,9.80,9.80
9.87,-1.67,-1.45,9.87,9.87,9.87
9.82,-1.86,-1.50,8.26,8.26,8.26
9.76,-1.85,-1.51,5.95,5.95,5.95
9.65,-1.85,-1.49,4.06,4.06,3.78
9.54,-1.85,-1.51,0.98,0.98,0.56
9.44,-1.84,-1.49,-3.78,-3.78,-3.78
9.38,-1.87,-1.47,-7.77,-7.77,-7.77
9.30,-1.90,-1.45,-10.64,-11.62,-11.62
9.32,-1.95,-1.47,-14.56,-14.56,-15.54
9.34,-2.07,-1.51,-19.11,-19.11,-19.11
9.33,-2.16,-1.53,-22.54,-22.75,-22.75
9.30,-2.28,-1.56,-24.36,-25.20,-25.20
9.37,-2.39,-1.57,-26.39,-26.60,-27.02
9.34,-2.48,-1.56,-28.00,-28.00,-28.14
9.25,-2.54,-1.55,-28.91,-28.91,-28.91
9.39,-2.67,-1.57,-29.19,-29.12,-29.12
9.41,-2.74,-1.54,-28.91,-28.91,-28.91
9.51,-2.87,-1.53,-28.21,-28.07,-28.07
9.63,-2.94,-1.54,-27.16,-27.16,-27.09
9.69,-3.01,-1.54,-25.62,-25.62,-25.41
9.75,-3.07,-1.56,-24.29,-24.29,-24.29
9.75,-3.13,-1.50,-23.24,-23.24,-23.24
9.75,-3.16,-1.51,-21.56,-21.56,-21.42
9.83,-3.19,-1.52,-19.74,-19.74,-19.74
9.91,-3.24,-1.56,-18.62,-18.62,-18.62
9.91,-3.19,-1.54,-17.15,-17.15,-17.15
9.73,-3.17,-1.51,-16.31,-16.31,-16.31
9.68,-3.11,-1.51,-16.31,-16.31,-16.31
9.65,-3.04,-1.53,-16.80,-16.80,-16.94
9.67,-2.95,-1.52,-18.48,-18.48,-18.48
9.80,-2.87,-1.54,-20.09,-20.09,-20.09
9.87,-2.82,-1.53,-21.63,-21.63,-21.63
9.97,-2.79,-1.57,-23.31,-23.31,-23.31
10.35,-2.86,-1.71,-25.41,-25.41,-25.41
10.71,-2.90,-1.77,-27.44,-27.44,-27.44
10.63,-2.89,-1.66,-28.77,-28.77,-28.77
9.98,-2.78,-1.34,-28.07,-27.79,-27.79
9.05,-2.57,-0.94,-25.48,-25.48,-25.20
8.46,-2.42,-0.81,-24.22,-23.94,-23.73
8.63,-2.25,-0.83,-23.03,-23.03,-22.89
9.15,-2.20,-0.96,-21.63,-21.63,-20.93
9.70,-2.28,-1.04,-17.22,-17.22,-17.22
9.91,-2.37,-1.08,-11.69,-11.69,-11.69
9.87,-2.33,-1.11,-4.34,-3.43,-3.43
9.75,-2.17,-1.14,0.00,1.75,1.75
9.73,-2.06,-1.22,3.99,4.34,4.83
9.87,-1.81,-1.24,5.81,5.81,5.95
9.97,-1.62,-1.20,6.30,6.30,6.30
10.10,-1.37,-1.20,6.51,6.51,6.51
10.22,-1.17,-1.22,6.58,6.58,6.58
10.19,-1.06,-1.27,6.09,6.09,6.09
10.21,-0.99,-1.35,5.39,5.39,5.39
10.26,-0.87,-1.36,5.04,4.97,4.97
10.19,-0.77,-1.38,4.97,4.97,4.97
10.04,-0.65,-1.34,4.83,4.76,4.76
9.95,-0.59,-1.29,4.69,4.83,4.83
9.77,-0.55,-1.25,5.25,5.25,5.25
9.51,-0.44,-1.19,6.79,6.79,6.79
9.28,-0.39,-1.13,7.84,7.84,7.84
9.04,-0.29,-1.12,8.54,8.54,8.54
8.66,0.08,-0.89,8.61,8.61,8.61
8.44,0.09,-0.82,9.10,9.24,9.24
8.36,0.06,-0.72,10.29,10.57,10.57
8.66,0.13,-0.99,12.18,12.18,12.25
9.60,0.11,-1.29,12.74,12.81,12.81
10.30,0.52,-0.89,12.60,12.04,11.97
9.43,0.88,-0.24,9.45,9.45,9.45
8.37,0.46,0.00,3.71,3.01,3.01
8.01,-0.12,-0.26,-0.77,-1.47,-2.87
8.23,-0.67,-0.77,-6.44,-7.07,-8.47
8.78,-1.19,-1.18,-12.46,-12.46,-13.02
9.44,-1.47,-1.33,-16.66,-17.50,-17.50
9.91,-1.63,-1.28,-19.60,-20.37,-20.37
9.85,-1.67,-1.00,-21.42,-21.42,-21.77
9.54,-1.72,-0.65,-22.12,-22.12,-22.12
9.37,-1.85,-0.47,-21.91,-21.91,-21.91
9.62,-1.98,-0.60,-20.65,-20.65,-20.65
10.03,-2.13,-0.79,-18.83,-18.83,-18.13
10.40,-2.28,-1.04,-15.19,-15.19,-15.19
10.53,-2.37,-1.32,-9.31,-9.31,-9.31
10.56,-2.40,-1.51,-5.32,-5.32,-5.32
10.46,-2.45,-1.59,-1.12,-1.12,-1.12
10.28,-2.39,-1.56,2.38,2.80,2.80
10.05,-2.33,-1.50,4.34,4.55,4.55
9.95,-2.28,-1.32,5.95,5.95,6.16
9.85,-2.21,-1.19,6.93,7.14,7.28
9.74,-2.17,-1.02,8.82,8.82,9.03
9.76,-2.15,-0.94,9.94,9.94,10.15
9.69,-2.13,-0.90,10.78,10.78,10.78
9.75,-2.13,-0.96,11.76,11.90,11.90
9.97,-2.15,-1.04,12.67,12.81,12.81
10.12,-2.11,-1.14,14.21,14.21,14.42
10.21,-2.01,-1.16,15.54,15.54,15.68
10.26,-2.01,-1.27,17.64,17.64,17.64
10.21,-1.95,-1.25,18.90,18.90,18.90
10.10,-1.92,-1.24,21.42,21.42,21.42
9.95,-1.88,-1.23,23.45,23.45,23.45
9.82,-1.78,-1.23,24.43,24.43,24.43
9.76,-1.72,-1.24,25.41,25.41,25.41
9.69,-1.65,-1.23,25.69,25.83,25.83
9.61,-1.59,-1.21,25.90,25.76,25.76
9.50,-1.52,-1.20,25.55,25.55,25.27
9.57,-1.52,-1.18,24.57,24.57,24.57
9.59,-1.50,-1.22,24.43,24.43,24.43
9.68,-1.51,-1.25,24.08,24.08,24.08
9.78,-1.48,-1.33,23.45,23.45,23.45
9.91,-1.44,-1.36,22.19,22.19,22.19
9.93,-1.40,-1.45,20.30,20.16,20.16
9.83,-1.36,-1.46,18.97,18.97,18.83
9.74,-1.35,-1.42,16.66,16.66,16.66
9.54,-1.31,-1.39,14.91,14.21,14.21
9.38,-1.27,-1.37,12.32,12.32,11.76
9.33,-1.29,-1.36,10.08,10.08,10.08
9.26,-1.31,-1.34,7.28,7.28,7.28
9.15,-1.34,-1.28,5.67,5.67,5.67
9.07,-1.35,-1.25,4.55,4.55,4.55
9.08,-1.39,-1.23,3.29,3.22,3.22
9.11,-1.40,-1.22,2.80,2.73,2.73
9.15,-1.46,-1.21,2.66,2.66,2.66
9.27,-1.54,-1.24,3.08,3.15,3.15
9.38,-1.57,-1.27,3.50,3.71,3.71
9.53,-1.60,-1.29,4.06,4.27,4.41
9.58,-1.63,-1.30,4.90,5.18,5.18
9.56,-1.59,-1.29,6.09,6.30,6.30
9.52,-1.61,-1.27,6.65,6.72,6.72
9.47,-1.57,-1.26,7.07,7.07,7.00
9.49,-1.57,-1.26,6.93,6.72,6.86
9.50,-1.56,-1.24,6.44,6.37,6.37
9.56,-1.57,-1.26,5.11,5.11,5.04
9.51,-1.56,-1.25,4.41,4.48,4.06
9.75,-1.52,-1.29,3.01,2.80,2.80
9.68,-1.57,-1.25,1.05,1.05,0.98
9.69,-1.54,-1.24,-0.35,-0.35,-0.56
9.66,-1.56,-1.24,-1.40,-1.96,-2.17
9.73,-1.60,-1.29,-3.29,-3.57,-3.92
9.85,-1.61,-1.34,-4.90,-4.90,-5.18
9.86,-1.62,-1.30,-6.09,-6.16,-6.16
9.89,-1.64,-1.35,-7.28,-7.28,-7.28
9.98,-1.63,-1.34,-8.19,-8.19,-8.26
9.95,-1.68,-1.35,-9.03,-9.03,-9.03
9.93,-1.72,-1.37,-9.66,-9.66,-9.66
9.83,-1.71,-1.34,-10.29,-10.36,-10.43
9.73,-1.69,-1.30,-11.06,-11.06,-11.13
9.66,-1.71,-1.27,-11.69,-11.69,-11.69
9.67,-1.73,-1.30,-12.11,-12.11,-12.11
9.71,-1.74,-1.25,-11.97,-11.97,-11.97
9.71,-1.74,-1.27,-11.41,-11.34,-11.34
9.67,-1.73,-1.26,-10.78,-10.64,-10.64
9.62,-1.75,-1.30,-10.08,-10.08,-10.01
9.63,-1.76,-1.32,-8.96,-8.96,-8.68
9.62,-1.79,-1.34,-5.04,-4.90,-4.90
9.60,-1.77,-1.31,-3.99,-3.99,-3.99
9.61,-1.81,-1.34,-2.03,-2.03,-2.03
9.59,-1.79,-1.32,-0.49,-0.49,-0.49
9.61,-1.75,-1.33,0.84,0.84,0.84
9.61,-1.73,-1.38,1.75,1.96,1.96
9.77,-1.71,-1.43,2.80,3.01,3.01
9.71,-1.70,-1.42,3.92,4.06,4.34
9.56,-1.59,-1.34,5.81,5.81,5.74
9.47,-1.55,-1.34,5.74,5.74,5.74
9.50,-1.56,-1.35,5.53,5.53,5.46
9.51,-1.55,-1.34,5.25,5.25,5.18
9.58,-1.54,-1.37,4.83,4.83,4.69
9.60,-1.55,-1.35,4.34,4.34,4.34
9.65,-1.52,-1.37,3.85,3.78,3.50
9.58,-1.52,-1.38,3.08,3.08,3.08
9.62,-1.49,-1.39,1.75,1.75,1.75
9.51,-1.52,-1.38,0.77,0.56,0.56
9.56,-1.56,-1.39,-0.21,-0.21,-0.21
9.55,-1.56,-1.40,-0.77,-1.12,-1.12
9.52,-1.56,-1.35,-1.89,-2.03,-2.03
9.55,-1.56,-1.35,-3.64,-3.64,-3.71
9.51,-1.56,-1.35,-4.55,-4.76,-4.90
9.60,-1.64,-1.37,-5.46,-5.46,-5.46
9.62,-1.71,-1.37,-5.60,-5.60,-5.53
9.65,-1.74,-1.38,-5.53,-5.60,-5.60
9.62,-1.75,-1.36,-5.46,-5.46,-5.53
9.56,-1.77,-1.34,-5.39,-5.39,-5.39
9.65,-1.83,-1.36,-3.85,-3.85,-3.71
9.63,-1.83,-1.35,-3.01,-3.01,-2.80
9.59,-1.84,-1.33,-2.10,-2.10,-2.10
9.58,-1.82,-1.31,-1.40,-1.40,-1.40
9.56,-1.78,-1.28,-0.84,-0.84,-0.84
9.57,-1.77,-1.29,-0.28,-0.28,-0.28
9.68,-1.78,-1.31,0.56,0.56,0.56
9.67,-1.78,-1.30,1.47,1.54,1.54
9.64,-1.78,-1.30,2.10,2.24,2.24
9.64,-1.74,-1.31,2.59,2.66,2.66
9.65,-1.70,-1.31,2.87,2.80,2.87
9.70,-1.69,-1.30,2.94,2.94,2.94
9.64,-1.69,-1.25,3.01,2.94,2.94
9.71,-1.67,-1.29,2.94,2.87,2.87
9.67,-1.66,-1.27,2.73,2.80,2.80
9.72,-1.64,-1.31,2.66,2.66,2.52
9.75,-1.62,-1.32,2.31,2.31,2.31
9.74,-1.64,-1.34,1.82,1.82,1.82
9.72,-1.60,-1.34,1.12,1.12,1.12
9.71,-1.58,-1.35,0.56,0.56,0.56
9.70,-1.57,-1.39,-0.07,-0.07,-0.07
9.68,-1.63,-1.40,-0.77,-0.77,-0.77
9.56,-1.63,-1.37,-0.91,-0.91,-0.91
9.57,-1.63,-1.38,-1.26,-1.26,-1.26
9.52,-1.64,-1.34,-1.54,-1.54,-1.61
9.56,-1.64,-1.35,-1.68,-1.68,-1.68
9.58,-1.69,-1.42,-1.82,-1.82,-1.75
9.73,-1.71,-1.46,-1.40,-1.40,-1.33
9.71,-1.74,-1.44,-0.28,-0.28,-0.07
9.66,-1.72,-1.44,0.56,0.70,0.70
9.55,-1.73,-1.42,1.19,1.19,1.33
9.49,-1.69,-1.43,1.68,1.68,1.54
9.45,-1.70,-1.42,2.17,2.17,2.24
9.39,-1.70,-1.38,2.87,2.87,2.87
9.38,-1.69,-1.40,3.01,3.01,3.01
9.38,-1.67,-1.41,2.73,2.73,2.73
9.47,-1.65,-1.45,2.10,2.17,2.17
9.51,-1.66,-1.45,1.89,1.75,1.75
9.53,-1.65,-1.45,1.40,1.40,1.33
9.51,-1.63,-1.41,0.70,0.70,0.70
9.50,-1.62,-1.42,-0.28,-0.28,-0.35
9.49,-1.63,-1.41,-1.12,-1.12,-1.12
9.51,-1.64,-1.45,-2.10,-2.24,-2.24
9.55,-1.65,-1.43,-2.66,-2.73,-2.73
9.47,-1.65,-1.41,-3.08,-3.15,-3.15
9.54,-1.67,-1.42,-3.71,-3.71,-3.71
9.49,-1.67,-1.41,-3.99,-3.99,-3.99
9.49,-1.71,-1.42,-4.55,-4.55,-4.55
9.44,-1.72,-1.39,-4.97,-4.97,-4.90
9.54,-1.74,-1.42,-5.11,-5.18,-5.11
9.57,-1.77,-1.42,-5.04,-5.04,-5.04
9.65,-1.80,-1.45,-4.41,-4.27,-4.27
9.63,-1.81,-1.45,-3.71,-3.71,-3.71
9.61,-1.83,-1.44,-2.87,-2.80,-2.80
9.61,-1.81,-1.42,-2.31,-2.31,-2.31
9.58,-1.83,-1.42,-1.61,-1.68,-1.68
9.61,-1.81,-1.41,-1.26,-1.05,-1.05
9.61,-1.81,-1.39,-0.42,-0.35,-0.35
9.54,-1.79,-1.35,0.21,0.35,0.35
9.55,-1.77,-1.33,0.77,0.77,0.77
9.60,-1.73,-1.38,0.63,0.56,0.56
9.66,-1.74,-1.37,0.14,0.14,0.14
9.72,-1.72,-1.38,-0.49,-0.49,-0.49
9.80,-1.72,-1.44,-1.12,-1.12,-1.12
9.78,-1.70,-1.44,-2.03,-2.03,-2.03
9.78,-1.67,-1.45,-3.08,-3.22,-3.22
9.65,-1.67,-1.40,-4.69,-4.83,-4.83
9.59,-1.66,-1.41,-6.16,-6.58,-6.58
9.54,-1.65,-1.41,-7.91,-7.91,-8.05
9.50,-1.67,-1.38,-9.10,-9.10,-9.24
9.48,-1.73,-1.40,-9.94,-9.94,-9.94
9.49,-1.78,-1.39,-10.08,-10.08,-10.08
9.39,-1.82,-1.37,-9.73,-9.73,-9.73
9.53,-1.88,-1.39,-9.10,-9.10,-9.10
9.55,-1.87,-1.37,-8.33,-8.33,-8.33
9.62,-1.92,-1.40,-6.44,-6.44,-6.44
9.59,-1.97,-1.40,-4.41,-4.41,-4.41
9.69,-2.00,-1.42,-2.38,-2.38,-2.38
9.71,-2.01,-1.45,0.14,0.49,0.49
9.62,-1.98,-1.40,2.10,2.52,2.52
9.61,-1.93,-1.40,4.06,4.06,4.20
9.56,-1.89,-1.37,5.60,5.60,5.81
9.53,-1.86,-1.39,6.44,6.44,6.51
9.48,-1.80,-1.38,7.21,7.21,7.35
9.49,-1.80,-1.37,7.49,7.49,7.49
9.53,-1.75,-1.42,7.28,7.28,7.14
9.58,-1.73,-1.45,6.86,6.86,6.65
9.62,-1.74,-1.47,6.09,6.09,6.09
9.61,-1.70,-1.46,4.97,4.83,4.83
9.69,-1.67,-1.50,3.43,3.15,3.15
9.68,-1.66,-1.48,2.17,1.61,1.61
9.67,-1.66,-1.51,0.21,0.21,0.21
9.60,-1.66,-1.47,-1.61,-1.82,-1.82
9.51,-1.64,-1.45,-2.94,-3.57,-3.57
9.48,-1.66,-1.45,-4.76,-5.46,-5.46
9.52,-1.70,-1.49,-6.37,-6.58,-7.07
9.49,-1.71,-1.46,-7.56,-7.70,-7.70
9.51,-1.73,-1.46,-8.40,-8.40,-8.40
9.70,-1.79,-1.31,-9.24,-9.24,-9.24
10.02,-1.87,-1.15,-9.31,-9.45,-9.45
10.60,-1.79,-0.90,-9.24,-9.24,-9.24
11.13,-1.70,-0.55,-8.33,-8.33,-8.26
11.77,-1.78,-0.17,-7.07,-6.44,-6.02
12.50,-1.78,0.32,-3.50,-3.50,-2.94
12.30,-1.70,0.51,3.15,3.15,3.85
11.85,-1.73,0.26,7.35,7.35,7.63
11.94,-1.79,0.12,8.61,8.54,8.54
12.10,-1.72,0.41,7.56,7.56,7.35
11.94,-1.43,0.75,5.74,5.74,5.74
11.57,-1.27,1.00,3.29,3.01,1.96
10.76,-1.18,1.36,-0.14,-0.77,-1.54
10.09,-0.95,1.91,-3.71,-3.99,-4.55
9.85,-0.85,2.18,-7.91,-8.26,-8.26
9.81,-0.79,2.26,-11.48,-11.83,-11.83
9.69,-0.86,2.28,-13.51,-14.35,-14.35
9.47,-0.83,2.18,-15.33,-15.33,-15.54
9.08,-0.80,2.00,-15.75,-15.68,-15.68
8.97,-0.88,2.16,-14.70,-14.49,-14.49
9.17,-1.07,2.47,-13.16,-13.16,-13.16
9.46,-1.23,2.90,-11.97,-11.13,-11.13
9.36,-1.29,3.37,-8.96,-7.98,-7.42
8.92,-1.21,3.57,-4.62,-4.62,-2.80
8.38,-1.16,3.89,0.07,0.07,0.70
7.98,-1.21,4.50,3.43,3.43,3.43
7.66,-1.28,4.86,4.13,4.06,4.06
8.22,-1.64,5.49,7.70,7.70,8.05
9.24,-2.05,6.17,11.48,11.48,12.60
10.05,-2.23,6.63,17.29,17.29,17.29
10.34,-2.02,6.57,20.79,21.21,21.21
10.09,-1.79,6.47,23.38,23.38,23.38
9.22,-1.68,6.65,22.68,22.54,22.54
8.19,-1.52,6.83,21.28,21.00,21.00
7.20,-1.29,7.26,17.64,17.22,17.22
6.28,-1.33,7.65,14.98,14.77,14.77
5.88,-1.44,8.06,13.79,13.51,13.51
5.37,-1.56,8.77,12.60,12.60,12.60
4.87,-1.52,9.15,13.16,13.16,13.16
4.75,-1.36,9.48,14.63,14.63,14.63
4.71,-1.28,9.67,15.75,15.75,15.75
4.95,-1.37,9.75,17.36,17.36,17.36
5.01,-1.46,9.84,22.47,23.17,23.17
5.23,-1.30,9.94,26.95,29.26,29.26
5.37,-1.02,10.13,33.04,35.00,35.00
5.11,-0.97,10.36,38.64,41.02,41.02
4.71,-0.99,10.39,45.71,46.83,48.79
3.91,-0.90,10.30,54.46,55.79,55.79
3.13,-0.85,10.34,63.98,65.24,65.24
2.66,-0.89,10.51,76.51,76.51,77.70
2.14,-0.62,10.69,83.51,85.54,86.38
1.66,-0.34,10.87,90.30,91.63,92.47
0.94,-0.19,10.86,97.02,97.02,97.86
0.48,0.11,10.76,105.07,105.07,105.07
0.09,0.33,10.49,112.14,112.14,112.14
-0.31,0.80,10.14,117.39,118.93,118.93
-0.83,1.12,9.70,122.85,122.85,123.97
-1.47,1.42,9.04,128.45,128.45,128.45
-2.04,1.72,8.64,133.07,133.07,133.07
-2.87,2.18,8.10,139.23,139.23,140.84
-3.20,3.65,7.37,143.99,143.99,144.34
-3.51,2.68,6.63,146.72,146.72,146.72
-3.96,2.84,6.04,148.05,148.54,148.54
-4.51,3.00,5.40,149.73,149.73,149.80
-5.00,3.36,4.76,148.54,148.54,148.54
-5.35,3.51,4.31,145.39,144.69,143.50
-5.69,3.56,3.78,140.49,140.49,138.74
-6.17,3.52,3.21,135.66,135.66,135.17
-6.75,3.43,2.41,129.57,129.57,129.01
-7.52,3.04,1.81,126.70,126.70,126.63
-7.96,2.99,1.25,125.72,125.72,125.72
-7.89,3.20,0.89,124.25,124.25,124.25
-8.01,3.31,0.37,119.35,119.35,118.65
-8.01,3.34,0.11,114.17,114.17,114.17
-7.64,3.55,0.03,111.86,111.86,111.86
-7.71,4.18,0.09,105.21,105.21,105.21
-7.83,4.47,0.10,98.91,98.91,97.79
-8.34,5.08,0.36,67.69,66.15,66.15
-8.66,4.73,0.29,28.91,27.44,27.44
-9.11,4.76,0.67,2.31,1.26,1.26
-9.07,4.59,0.76,-7.35,-7.35,-8.05
-8.96,3.85,0.90,-16.31,-16.31,-16.31
-9.25,3.52,1.14,-17.29,-17.36,-17.36
-9.41,3.19,1.28,-17.15,-17.22,-17.22
-9.49,2.90,1.39,-17.01,-16.80,-16.80
-9.37,2.60,1.47,-16.52,-16.52,-16.52
-8.93,1.95,1.51,-16.52,-16.52,-16.24
-8.65,1.58,1.46,-14.77,-14.77,-14.35
-8.54,1.32,1.52,-9.52,-9.52,-9.52
-8.58,1.19,1.52,-4.90,-4.90,-4.90
-8.82,1.10,1.54,0.77,0.77,0.77
-8.94,0.96,1.51,4.48,5.88,5.88
-8.95,0.77,1.35,9.31,10.15,10.15
-9.10,0.68,1.08,17.36,18.06,18.06
-9.12,0.63,0.87,23.66,24.50,24.50
-9.02,0.55,0.68,28.42,29.12,30.73
-8.99,0.56,0.41,35.00,35.00,35.49
-8.86,0.46,0.04,38.43,38.43,38.43
-8.74,0.33,-0.22,40.39,41.16,41.16
-9.02,0.21,-0.44,43.68,43.96,43.96
-9.19,0.37,-0.53,45.99,45.99,45.99
-9.20,0.71,-0.56,45.71,45.15,44.80
-9.24,0.93,-0.60,42.35,42.35,40.46
-9.39,1.00,-0.57,37.31,37.31,35.14
-9.60,0.94,-0.48,31.57,31.57,29.54
-9.76,0.89,-0.39,24.99,24.99,24.99
-9.82,0.91,-0.25,19.25,19.25,19.25
-9.82,1.06,-0.16,9.66,9.66,9.66
-9.86,1.00,-0.14,1.47,1.47,1.47
-9.89,0.87,-0.07,-3.71,-3.71,-3.71
-9.94,0.54,0.11,-9.73,-10.43,-10.43
-9.98,0.26,0.16,-14.42,-15.05,-15.05
-10.10,-0.16,0.22,-17.22,-17.64,-17.64
-10.44,-0.48,0.33,-19.25,-19.25,-19.25
-10.77,-0.76,0.29,-20.86,-20.93,-20.93
-10.26,-0.83,0.11,-21.77,-21.77,-21.98
-9.52,-0.76,-0.14,-22.33,-22.26,-22.26
-8.67,-0.91,-0.36,-22.26,-22.12,-22.12
-7.52,-0.80,-0.53,-21.21,-21.07,-21.07
-6.72,-0.55,-0.59,-19.74,-19.74,-19.39
-6.29,-0.32,-0.63,-18.55,-18.55,-18.55
-6.28,-0.56,-0.45,-17.43,-17.43,-17.43
-6.55,-0.89,-0.29,-16.45,-16.38,-16.38
-7.99,-1.18,0.01,-17.29,-17.64,-17.64
-10.46,-1.56,0.32,-23.52,-23.52,-24.78
-12.89,-2.28,0.72,-34.72,-34.72,-35.49
-14.90,-2.85,0.48,-36.68,-36.68,-36.47
-17.33,-3.63,0.30,-34.79,-34.79,-34.79
-17.26,-3.82,0.15,-32.48,-32.20,-32.20
-14.73,-3.18,0.72,-28.70,-27.72,-27.72
-11.75,-2.15,1.40,-22.89,-19.25,-19.25
-8.99,-0.69,2.39,-12.25,-7.77,-7.77
-7.01,0.62,3.45,3.36,3.36,3.36
-6.53,1.31,4.08,15.89,15.89,17.50
-7.02,1.50,4.15,27.58,27.58,27.58
-7.79,1.49,3.83,31.01,31.01,31.01
-8.59,1.13,3.36,29.89,29.89,29.89
-9.12,0.50,2.54,25.62,25.06,25.06
-9.43,-0.38,1.35,19.32,19.32,18.62
-9.88,-0.86,0.50,13.65,13.65,12.88
-9.88,-1.14,-0.00,8.82,7.00,5.95
-10.22,-1.35,-0.64,0.77,-0.28,-0.28
-10.28,-1.50,-1.32,-8.75,-8.75,-8.75
-10.29,-1.45,-1.81,-16.94,-17.92,-17.92
-10.46,-1.23,-1.69,-19.74,-19.74,-20.02
-10.52,-0.73,-1.11,-20.30,-20.30,-20.30
-10.66,-0.16,-0.29,-18.41,-18.41,-18.13
-10.72,0.25,0.50,-13.79,-13.79,-13.79
-10.63,0.56,1.01,-10.08,-10.08,-10.08
-10.41,0.66,1.43,-5.67,-5.67,-5.67
-10.11,0.59,1.77,0.07,0.07,0.07
-9.85,0.45,1.71,3.15,3.15,3.15
-9.61,0.16,1.57,4.90,4.90,4.90
-9.38,-0.22,1.27,5.88,5.95,5.95
-9.17,-1.12,0.57,7.28,7.42,7.42
-9.01,-1.23,0.46,7.00,6.58,6.51
-9.09,-1.33,0.33,5.53,4.97,4.76
-9.12,-1.29,0.32,3.57,3.57,3.43
-9.21,-1.15,0.37,2.38,2.38,2.31
-9.45,-1.04,0.45,2.03,2.03,2.17
-9.69,-0.79,0.52,2.52,2.66,2.87
-9.79,-0.45,0.67,3.36,3.36,3.78
-9.94,-0.16,0.78,4.13,4.13,4.41
-10.08,0.22,0.87,4.69,4.69,4.76
-10.14,0.55,0.97,5.32,5.32,5.39
-10.12,0.62,0.93,6.09,6.09,6.23
-10.11,0.70,0.85,6.79,6.79,6.79
-10.03,0.81,0.81,6.93,6.93,6.79
-9.94,0.90,0.74,5.95,5.95,5.95
-9.84,0.93,0.66,4.27,4.27,4.27
-9.77,0.88,0.61,3.15,3.15,3.15
-9.85,0.81,0.53,2.17,2.17,2.17
-9.99,0.71,0.59,1.19,1.19,1.19
-10.11,0.62,0.59,0.42,0.42,0.42
-10.16,0.55,0.60,0.00,-0.21,-0.21
-9.90,0.56,0.60,-0.70,-0.70,-0.77
-9.89,0.51,0.54,-1.61,-1.61,-1.61
-9.83,0.40,0.56,-1.75,-1.75,-1.75
-9.74,0.33,0.62,-0.91,-0.91,-0.91
-9.63,0.40,0.67,-0.49,-0.70,-0.70
-9.56,0.48,0.69,-0.91,-0.91,-1.05
-9.49,0.49,0.74,-1.61,-1.61,-1.61
-9.48,0.38,0.70,-1.96,-1.96,-1.96
-9.50,0.29,0.72,-2.10,-2.10,-2.31
-9.65,0.27,0.78,-2.31,-2.31,-2.31
-9.79,0.33,0.84,-3.01,-3.22,-3.22
-9.85,0.34,0.89,-4.20,-4.20,-4.48
-9.76,0.38,0.93,-5.53,-5.53,-5.53
-9.81,0.35,0.93,-6.65,-6.65,-6.65
-9.76,0.41,0.96,-7.28,-7.35,-7.35
-9.71,0.41,0.92,-7.35,-7.49,-7.49
-9.74,0.41,0.92,-7.00,-6.93,-6.93
-9.76,0.37,0.93,-5.74,-5.60,-5.60
-9.66,0.33,0.96,-4.55,-3.78,-3.78
-9.63,0.26,1.01,-2.38,-2.10,-1.61
-9.73,0.21,1.04,0.07,0.91,0.91
-9.82,0.22,1.10,2.38,2.38,2.38
-10.06,0.26,1.16,3.78,3.92,3.92
-10.13,0.34,1.25,4.69,4.83,4.83
-9.94,0.62,1.25,5.81,5.74,5.74
-9.82,0.63,1.21,5.53,5.67,5.67
-9.65,0.61,1.19,5.25,5.04,5.04
-9.57,0.59,1.14,4.41,4.41,3.85
-9.49,0.64,1.21,2.94,2.73,2.73
-9.45,0.72,1.26,0.56,0.21,0.21
-9.42,0.76,1.33,-0.56,-0.70,-0.70
-9.51,0.78,1.35,-1.19,-1.26,-1.26
-9.69,0.74,1.33,-1.40,-1.40,-1.40
-9.68,0.69,1.29,-1.68,-1.68,-1.68
-9.71,0.66,1.28,-1.47,-1.47,-1.47
-9.76,0.63,1.21,-1.47,-1.47,-1.47
-9.79,0.61,1.14,-1.33,-1.19,-1.19
-9.88,0.64,1.14,-1.12,-1.12,-0.84
-9.96,0.60,1.18,-0.21,-0.21,-0.14
-10.03,0.63,1.20,0.56,0.56,0.56
-10.00,0.65,1.17,0.91,0.98,0.98
-9.89,0.59,1.15,1.33,1.33,1.33
-9.76,0.53,1.10,1.40,1.40,1.40
-9.72,0.53,1.15,1.26,1.19,1.19
-9.65,0.50,1.13,0.56,0.56,0.21
-9.66,0.52,1.17,-0.91,-0.91,-1.05
-9.57,0.55,1.14,-2.17,-2.17,-2.31
-9.67,0.53,1.19,-3.29,-3.57,-3.85
-9.70,0.52,1.23,-4.97,-4.97,-4.90
-9.74,0.47,1.29,-5.39,-5.39,-5.39
-9.70,0.38,1.26,-5.32,-5.32,-5.32
-9.66,0.37,1.30,-5.18,-5.18,-5.11
-9.56,0.34,1.31,-4.83,-4.83,-4.76
-9.54,0.32,1.23,-4.55,-4.55,-4.55
-9.66,0.27,1.22,-3.99,-3.99,-3.99
-9.77,0.29,1.26,-2.59,-2.59,-2.59
-9.88,0.40,1.27,-1.40,-1.40,-1.40
-9.71,0.72,1.25,0.63,0.63,0.63
-9.67,0.79,1.21,-1.12,-1.12,-1.19
-9.85,0.80,1.24,-2.59,-2.59,-2.59
-10.27,0.84,1.27,-3.92,-4.27,-4.27
-10.71,0.88,1.36,-5.74,-5.74,-6.30
-11.05,0.78,1.41,-7.84,-7.84,-7.84
-11.28,0.67,1.43,-9.59,-9.59,-9.59
-11.45,0.72,1.42,-11.13,-11.13,-11.13
-11.74,0.64,1.46,-12.88,-13.09,-13.09
-11.72,0.25,1.09,-15.54,-15.54,-15.54
-11.93,0.24,0.92,-16.03,-16.52,-16.80
-12.32,0.22,1.01,-18.20,-18.20,-19.04
-12.32,0.04,1.08,-19.81,-19.81,-19.81
-12.33,-0.04,1.07,-20.16,-20.16,-20.16
-12.62,-0.19,0.87,-21.42,-21.42,-21.42
-12.83,-0.31,0.76,-21.21,-21.07,-21.07
-12.90,-0.38,0.84,-20.51,-20.44,-20.02
-13.06,-0.02,1.09,-19.18,-19.18,-19.18
-12.78,-0.27,1.15,-15.54,-14.98,-14.98
-12.37,-0.42,1.22,-10.78,-10.08,-10.08
-11.84,-0.34,1.19,-4.76,-4.76,-4.76
-11.89,-0.55,1.46,1.26,1.26,1.26
-11.42,-0.86,1.34,7.70,7.70,7.70
-10.85,-1.04,1.40,17.01,17.01,17.01
-10.82,-0.97,1.60,22.61,23.38,23.38
-10.72,-0.67,1.86,28.42,29.26,29.26
-10.31,-0.41,1.83,30.10,30.10,30.24
-9.87,-0.57,1.38,30.73,30.73,31.29
-9.13,-0.81,0.92,34.23,34.23,34.23
-8.97,-0.39,0.99,37.24,37.31,37.31
-8.89,-0.03,0.86,37.24,37.24,37.24
-8.73,0.34,0.20,34.51,34.51,34.51
-8.50,0.56,-0.13,31.43,31.43,31.43
-8.60,0.69,-0.15,29.68,29.68,29.68
-8.77,1.08,-0.31,27.72,27.72,27.72
-9.00,1.37,-0.84,23.80,23.80,23.80
-9.17,1.48,-1.18,18.27,18.27,18.27
-8.92,1.06,-1.77,13.23,13.23,13.23
-8.37,0.63,-2.06,14.77,15.26,15.26
-7.22,0.82,-1.39,19.88,20.51,20.51
-6.30,1.00,-1.52,25.83,25.83,26.46
-5.99,1.47,-1.10,29.19,30.17,30.80
-5.85,1.91,-0.12,34.44,36.05,36.05
-5.25,2.81,1.00,40.46,40.53,40.53
-5.69,3.36,1.68,35.35,35.35,35.35
-4.55,3.33,1.38,19.46,19.46,19.46
-2.11,2.74,0.86,0.56,0.56,0.56
-0.84,2.32,1.33,-7.35,-8.33,-8.33
-2.46,2.15,1.85,-34.58,-17.99,-17.99
-5.98,1.89,1.85,-26.60,-27.58,-27.58
-9.47,1.61,1.95,-33.53,-34.02,-34.02
-11.69,1.46,2.24,-35.14,-35.07,-34.79
-12.72,1.35,2.06,-33.25,-32.62,-32.62
-12.90,1.07,1.89,-24.99,-23.87,-23.87
-11.54,0.95,1.86,-14.77,-13.51,-13.51
-9.91,1.10,1.72,-5.88,-4.97,-4.97
-8.40,1.64,1.51,-0.28,0.07,0.07
-7.52,2.03,1.52,1.40,1.40,1.47
-7.11,2.39,1.39,1.05,0.91,0.91
-8.06,2.40,0.76,-8.12,-8.12,-8.75
-8.69,2.05,0.88,-15.33,-15.33,-15.33
-8.82,1.99,1.38,-18.97,-18.97,-18.97
-8.13,1.96,1.44,-19.81,-19.81,-19.81
-7.28,1.49,0.86,-17.99,-17.99,-17.99
-6.64,0.91,0.53,-14.21,-13.44,-13.44
-6.67,0.69,0.63,-6.93,-6.02,-6.02
-6.83,0.54,0.46,-0.14,-0.14,0.21
-7.53,0.61,0.14,2.17,2.59,2.73
-7.92,0.98,-0.28,3.01,2.66,2.45
-8.42,1.37,-0.17,0.14,-0.28,-0.28
-9.24,1.45,-0.13,-5.25,-5.25,-5.88
-8.84,1.52,0.01,-8.40,-9.31,-9.80
-8.23,1.69,0.13,-12.25,-13.30,-13.86
-8.35,1.79,0.36,-16.94,-16.94,-16.94
-8.53,1.62,0.49,-18.76,-18.97,-18.97
-8.17,1.76,0.84,-20.23,-20.23,-20.51
-8.83,1.74,1.20,-21.70,-21.70,-21.70
-8.87,1.51,0.96,-22.05,-22.05,-22.05
-9.24,1.49,1.34,-23.31,-23.31,-23.31
-9.32,1.35,1.40,-24.78,-25.06,-25.06
-9.56,1.38,1.57,-27.02,-27.02,-27.37
-10.16,1.23,1.68,-30.66,-30.66,-31.22
-9.91,1.08,1.89,-36.54,-36.54,-36.54
-10.07,0.81,1.87,-40.25,-40.25,-40.25
-10.19,0.56,1.78,-41.30,-41.30,-41.30
-9.95,0.27,1.72,-41.51,-41.51,-41.51
-9.68,0.03,1.59,-39.69,-39.69,-39.69
-9.87,-0.06,1.62,-37.24,-37.24,-37.24
-10.32,0.01,1.73,-33.25,-33.25,-33.25
-10.65,0.10,1.62,-26.11,-26.11,-26.11
-10.49,0.21,1.40,-22.12,-22.12,-21.49
-10.38,0.28,1.18,-16.94,-16.94,-16.31
-10.55,0.46,1.02,-10.64,-10.64,-10.08
-10.82,0.65,1.10,-4.55,-4.55,-4.55
-11.38,0.81,1.23,-1.05,0.00,0.00
-11.50,1.00,1.31,2.45,2.87,2.87
-11.61,1.20,1.20,3.64,3.71,3.71
-11.53,1.30,1.11,3.92,3.92,3.92
-10.92,1.46,1.12,3.71,3.50,3.50
-10.66,1.36,1.16,1.89,1.54,1.54
-10.47,1.35,1.28,-0.70,-1.26,-1.61
-10.28,1.34,1.36,-3.36,-3.36,-4.48
-10.20,1.14,1.49,-6.37,-6.65,-6.65
-9.90,1.01,1.43,-8.68,-8.68,-8.89
-9.95,1.03,1.49,-11.34,-11.34,-11.76
-9.95,0.82,1.50,-13.72,-13.72,-14.00
-9.87,0.45,1.54,-14.56,-14.56,-14.56
-9.61,0.10,1.53,-13.16,-13.16,-13.16
-9.47,0.17,1.49,-11.48,-11.48,-11.48
-9.65,0.27,1.66,-10.15,-10.01,-10.01
-9.73,0.29,1.67,-8.75,-8.47,-8.47
-10.09,0.29,1.67,-6.37,-6.37,-5.95
-10.15,0.31,1.69,-3.57,-3.57,-3.15
-9.98,0.48,1.66,0.07,0.07,0.42
-9.73,0.80,1.65,1.19,1.19,1.47
-9.92,1.00,1.72,1.96,1.96,1.96
-10.21,1.12,1.75,3.22,3.22,3.22
-10.28,1.34,1.84,3.99,3.99,3.99
-9.94,1.67,1.94,2.31,2.31,2.31
-9.34,1.96,1.98,-1.05,-1.05,-1.05
-9.00,2.10,2.10,-7.35,-7.35,-7.35
-9.40,1.90,2.40,-10.57,-10.57,-10.57
-9.74,1.75,2.73,-13.23,-13.30,-13.30
-9.96,1.73,2.89,-14.14,-14.63,-14.63
-9.72,1.49,3.08,-15.26,-15.26,-15.26
-9.69,1.21,2.98,-12.88,-12.88,-12.88
-9.90,1.01,3.06,-10.08,-9.24,-9.24
-10.63,0.82,3.25,-6.93,-5.46,-5.46
-11.42,0.60,3.41,-2.73,-2.31,-1.40
-11.64,0.54,3.62,1.47,2.10,3.22
-11.65,0.60,3.80,5.32,5.60,5.60
-11.82,0.60,3.93,7.56,7.63,7.63
-11.74,0.66,3.96,8.26,8.54,8.54
-11.72,0.67,3.97,8.40,8.40,8.40
-11.32,0.78,4.14,7.42,7.42,7.42
-10.97,0.80,4.16,6.09,6.09,6.09
-11.02,0.67,4.07,5.25,5.25,5.04
-10.98,0.59,3.95,3.85,3.85,3.85
-10.71,0.75,3.95,2.38,1.61,1.61
-10.93,0.86,3.98,-1.33,-2.45,-2.45
-10.98,0.83,3.91,-5.25,-5.25,-5.60
-10.91,0.74,3.70,-7.42,-7.42,-7.70
-10.68,0.73,3.56,-8.75,-8.75,-9.03
-10.98,0.53,3.34,-10.50,-10.50,-10.50
-11.42,0.30,3.16,-10.08,-10.08,-10.08
-11.76,0.31,3.11,-9.10,-9.10,-9.10
-11.75,0.45,3.08,-8.96,-8.96,-8.96
-9.93,0.11,2.51,-10.01,-10.01,-9.52
-9.87,0.02,2.05,-5.67,-5.67,-5.67
-10.38,0.06,2.06,-3.01,-2.10,-2.10
-10.58,0.03,1.92,0.91,2.24,2.24
-10.79,0.03,1.69,6.58,6.58,7.28
-10.69,-0.07,1.25,14.00,14.00,14.00
-10.59,-0.22,1.01,20.23,21.28,21.28
-10.53,-0.01,0.89,27.72,28.35,28.35
-10.46,0.18,0.69,33.04,33.04,33.39
-10.52,0.08,0.40,35.63,36.19,36.19
-10.39,0.27,0.38,38.43,38.43,38.36
-10.44,0.64,0.38,38.22,37.73,37.24
-10.77,1.00,0.38,34.51,33.25,32.62
-10.14,1.25,0.15,26.74,26.74,26.74
-9.32,0.85,-0.42,19.81,19.39,19.39
-8.82,0.36,-0.46,19.74,19.74,20.16
-8.82,0.33,-0.33,22.82,23.17,23.17
-8.96,0.31,-0.37,24.22,24.22,24.29
-8.49,0.03,-0.66,26.81,26.81,27.65
-8.33,-0.41,-0.69,33.53,33.53,34.79
-9.43,-0.55,-0.53,42.91,42.91,43.82
-10.01,-0.26,-0.39,50.40,50.40,50.40
-9.84,0.15,-0.40,51.80,52.01,52.01
-9.30,0.27,-0.54,52.22,52.43,52.43
-8.96,0.50,-0.52,52.57,52.57,52.36
-8.90,0.75,-0.47,50.40,50.40,50.26
-8.53,0.91,-0.17,47.25,46.90,46.90
-8.15,0.91,-0.25,44.10,44.10,43.47
-7.88,0.84,-0.44,39.20,39.20,39.20
-7.87,0.63,-0.11,35.56,35.56,35.56
-7.88,0.56,0.00,32.62,32.62,32.62
-7.98,0.71,0.27,30.87,30.31,30.31
-8.26,0.69,0.24,27.37,27.37,27.37
-8.14,0.59,-0.05,24.71,24.71,24.71
-8.87,0.33,-0.09,25.55,26.04,26.04
-9.14,0.15,0.02,27.51,27.51,28.00
-8.84,0.22,-0.27,29.82,29.96,29.96
-9.04,0.26,-0.45,29.40,29.40,29.33
-9.18,0.41,-0.36,28.21,27.93,28.00
-9.15,0.63,-0.23,27.09,27.09,26.39
-8.87,0.79,-0.02,24.99,24.99,24.78
-8.91,1.32,0.50,21.28,21.28,20.65
-8.55,1.40,0.56,14.91,14.91,13.93
-8.26,1.47,0.67,8.75,8.75,5.67
-7.07,1.48,0.54,-11.20,-11.20,-11.20
-7.31,1.33,0.67,-17.08,-18.69,-18.69
-7.90,1.26,0.72,-23.10,-23.10,-24.50
-8.35,1.16,0.76,-28.14,-28.14,-28.14
-9.68,0.70,0.54,-20.72,-19.95,-18.13
-9.69,0.67,-0.18,2.59,2.59,3.29
-9.69,1.13,0.29,6.23,6.23,6.23
-9.03,1.75,0.66,5.18,5.18,5.18
-7.82,2.22,0.64,2.80,2.80,2.80
-6.91,2.25,0.33,-0.84,-1.26,-1.26
-6.35,2.15,0.19,-2.45,-3.01,-3.01
-6.16,2.01,-0.15,-4.41,-4.41,-4.41
-6.79,1.97,-0.35,-7.91,-7.91,-7.91
-7.37,2.05,-0.22,-11.97,-11.97,-11.97
-7.64,1.89,-0.25,-16.10,-16.10,-16.10
-8.22,1.71,-0.29,-20.72,-21.07,-21.07
-8.24,1.44,-0.36,-22.96,-24.01,-24.01
-8.87,1.00,-0.54,-25.69,-26.18,-26.18
-8.93,0.86,-0.79,-28.00,-28.00,-28.00
-9.33,0.77,-0.46,-30.94,-30.94,-31.08
-9.38,0.73,-0.29,-31.57,-31.57,-31.64
-9.55,0.57,-0.61,-31.99,-31.99,-32.13
-9.38,0.42,-0.78,-32.90,-33.18,-33.25
-9.24,0.48,-0.63,-34.02,-34.30,-34.51
-9.50,0.55,-0.50,-36.19,-36.19,-36.19
-9.35,0.56,-0.67,-40.11,-40.60,-40.60
-9.57,0.58,-0.53,-42.98,-44.38,-44.38
-9.58,0.57,-0.41,-46.62,-48.09,-48.09
-9.28,0.55,-0.47,-50.47,-50.89,-51.73
-9.33,0.28,-0.20,-54.11,-54.11,-54.25
-9.54,0.16,-0.31,-53.55,-53.55,-53.34
-9.43,0.13,-0.57,-52.01,-52.01,-51.73
-9.60,0.01,-0.48,-50.68,-50.68,-50.19
-9.76,-0.37,-0.28,-47.74,-47.74,-47.74
-9.94,-0.44,-0.24,-41.16,-41.16,-41.16
-10.33,-0.33,-0.17,-35.49,-33.60,-33.60
-10.86,-0.34,0.14,-27.93,-27.93,-26.32
-10.61,-0.34,0.23,-21.70,-21.70,-21.70
-10.37,-0.18,0.55,-15.68,-15.68,-13.86
-10.80,-0.22,0.68,-7.35,-6.37,-6.37
-10.83,-0.25,1.05,0.28,0.28,0.98
-10.17,-0.02,1.23,3.64,3.64,3.85
-9.90,0.35,1.20,4.76,4.76,4.62
-10.29,0.41,1.54,3.64,3.64,3.64
-10.38,0.33,1.65,1.12,1.12,0.56
-10.43,0.29,1.87,-2.17,-2.17,-2.45
-10.80,0.22,1.92,-4.34,-4.34,-4.62
-10.81,0.31,1.90,-7.00,-7.91,-7.91
-10.76,0.54,2.04,-11.97,-11.97,-13.58
-11.31,0.44,2.24,-19.11,-19.11,-19.11
-11.22,0.24,2.19,-20.86,-20.86,-20.86
-11.14,0.18,2.03,-19.46,-19.32,-19.32
-11.12,0.17,1.96,-17.92,-17.78,-17.78
-10.81,0.22,1.84,-17.36,-17.43,-17.43
-10.52,0.20,1.63,-16.38,-16.38,-16.10
-10.53,0.16,1.54,-14.56,-14.07,-14.07
-10.70,0.07,1.37,-11.76,-11.76,-11.41
-10.83,0.05,1.17,-10.08,-10.08,-9.94
-10.94,-0.01,1.18,-9.73,-9.73,-9.87
-10.76,0.05,1.07,-9.45,-9.45,-9.45
-10.70,0.07,1.03,-9.03,-9.03,-9.03
-10.22,0.21,1.03,-8.82,-8.82,-8.82
-9.68,0.37,1.25,-8.19,-8.19,-8.19
-9.38,0.36,1.46,-7.56,-7.56,-7.56
-9.29,0.38,1.66,-7.56,-7.42,-7.42
-9.37,0.44,1.91,-7.98,-7.98,-7.91
-9.54,0.48,2.03,-8.19,-8.19,-8.19
-9.75,0.46,2.08,-7.77,-7.77,-7.84
-9.84,0.33,2.00,-6.30,-6.30,-6.09
-10.06,0.25,1.86,-3.57,-3.57,-3.57
-10.23,0.20,1.79,-2.31,-2.10,-2.10
-10.36,0.12,1.65,-1.75,-1.61,-1.61
-10.52,0.02,1.65,-1.26,-1.26,-1.05
-10.72,-0.08,1.57,-0.84,-0.84,-0.84
-11.07,-0.11,1.57,-2.31,-2.31,-2.31
-11.28,-0.25,1.85,-5.04,-5.04,-5.04
-11.08,-0.21,1.87,-4.83,-4.83,-4.83
-10.72,-0.04,1.99,-4.97,-5.25,-5.25
-10.25,0.17,2.24,-5.39,-5.39,-5.53
-9.75,0.34,2.47,-5.95,-5.95,-5.88
-9.41,0.40,2.66,-4.76,-4.76,-4.48
-9.45,0.54,2.89,-3.08,-3.08,-2.94
-9.61,0.57,3.01,-1.75,-1.75,-1.75
-9.94,0.57,3.27,-0.07,0.00,0.00
-10.20,0.51,3.34,1.12,1.12,1.12
-10.83,0.36,3.34,5.81,5.81,5.81
-10.99,0.44,3.35,7.84,8.12,8.12
-11.20,0.49,3.26,9.03,9.03,9.45
-11.08,0.59,3.15,10.78,11.06,11.06
-10.92,0.66,3.04,13.65,14.07,14.07
-10.83,0.96,3.00,16.66,16.73,16.73
-10.85,1.18,2.99,17.08,17.08,17.29
-10.73,1.34,2.77,17.78,17.78,17.92
-10.93,1.31,2.58,18.13,18.13,18.13
-11.05,1.30,2.32,18.34,18.34,18.34
-11.25,1.39,2.24,17.50,16.94,16.94
-11.28,1.35,2.04,14.91,14.91,14.35
-11.32,1.13,1.70,12.67,12.67,12.67
-11.60,0.73,1.33,9.94,9.94,9.94
-12.02,0.63,1.19,8.47,8.40,8.40
-11.94,0.70,0.74,5.60,5.60,5.11
-11.85,0.70,0.50,0.91,0.91,0.91
-11.83,0.71,0.13,-5.25,-6.09,-6.09
-11.77,0.27,-0.04,-11.97,-12.39,-12.39
-11.13,0.17,-0.03,-13.37,-13.23,-13.23
-10.58,-0.08,0.45,-10.92,-10.78,-10.78
-10.47,-0.18,0.60,-7.84,-7.84,-7.28
-10.35,-0.26,0.41,-4.06,-4.06,-3.29
-10.11,-0.54,0.39,-0.21,1.19,1.96
-9.82,-0.67,0.30,6.16,6.16,8.96
-9.94,-0.67,0.50,13.30,13.30,13.93
-10.19,-0.69,0.35,19.32,19.32,19.32
-10.15,-0.66,0.04,22.96,22.96,22.96
-10.04,-0.79,-0.02,24.36,24.78,24.78
-9.51,-1.01,-0.34,25.55,25.69,25.69
-9.30,-1.07,-0.62,27.93,27.93,28.21
-9.18,-0.91,-0.68,28.98,29.19,29.19
-8.94,-0.66,-0.78,28.07,27.86,27.86
-9.06,-0.66,-0.57,26.60,26.60,26.60
-9.16,-0.85,-0.69,31.64,32.62,33.04
-9.54,-0.56,-0.65,35.14,35.14,35.84
-9.58,-0.30,-0.86,36.75,36.75,36.89
-9.55,-0.03,-0.59,38.22,38.64,38.78
-9.50,0.04,-0.56,40.11,40.11,40.11
-9.19,0.01,-0.84,41.86,41.86,41.86
-8.91,-0.05,-0.59,42.49,42.49,42.56
-8.85,-0.31,-0.84,42.49,42.49,42.49
-8.61,-0.31,-0.71,41.23,41.23,41.23
-8.52,-0.42,-0.43,39.69,39.69,39.69
-8.25,-0.46,-0.43,36.96,36.96,36.96
-7.79,-0.63,-0.42,34.16,34.16,34.16
-6.81,-0.52,-0.34,33.53,33.53,33.53
-6.06,-0.28,-0.42,34.79,34.79,35.00
-5.62,-0.01,-0.18,37.45,37.45,37.87
-5.96,0.12,0.06,40.46,40.46,40.46
-7.14,0.61,0.67,43.19,43.19,43.19
-7.95,1.08,0.95,43.96,43.96,43.96
-8.14,1.56,1.13,40.81,40.81,40.32
-8.26,1.76,0.92,35.84,33.95,32.83
-7.86,1.83,0.44,27.16,27.16,23.31
-7.20,1.91,0.18,16.03,16.03,14.56
-6.99,1.81,-0.03,1.68,1.68,0.42
-7.14,1.79,-0.12,-7.98,-7.98,-9.10
-8.51,1.64,0.03,-13.30,-13.30,-15.47
-9.57,1.49,0.34,-17.85,-17.85,-18.06
-10.27,1.32,0.59,-17.43,-17.43,-17.08
-10.69,1.27,0.69,-15.19,-15.19,-14.84
-10.20,1.32,0.29,-11.97,-11.97,-11.97
-10.52,1.12,-0.02,-9.73,-9.03,-9.03
-10.86,0.88,-0.25,-6.09,-6.09,-6.09
-10.85,0.98,0.10,-2.10,-2.10,-2.10
-10.54,0.99,0.07,-0.63,-0.42,-0.42
-10.41,0.91,-0.21,0.21,0.21,0.21
-10.53,0.87,-0.06,-0.21,-0.21,-0.35
-10.67,0.78,0.08,-1.47,-1.47,-1.68
-10.57,0.84,0.10,-2.10,-2.38,-2.38
-10.49,1.04,0.29,-3.15,-3.15,-3.78
-10.43,1.12,0.38,-5.46,-5.46,-5.46
-10.09,1.10,0.46,-7.63,-7.63,-8.05
-9.92,0.85,0.61,-8.89,-8.89,-8.89
-9.66,0.63,0.67,-8.82,-8.75,-8.75
-9.40,0.52,0.71,-8.68,-8.68,-8.68
-8.96,0.33,0.72,-8.75,-8.61,-8.61
-9.08,0.20,0.73,-7.63,-7.28,-7.28
-9.25,0.10,0.81,-6.16,-5.32,-5.32
-9.41,0.04,0.94,-3.50,-3.50,-3.50
-9.25,0.05,0.79,-0.77,-0.77,-0.77
-9.15,0.03,0.78,1.40,1.40,1.40
-8.93,0.19,0.75,4.55,4.83,4.83
-8.95,0.39,0.72,5.88,6.16,6.16
-8.90,0.68,0.67,6.79,6.79,6.79
-8.71,0.79,0.46,6.30,6.30,6.30
-8.91,0.87,0.22,3.92,3.92,3.92
-8.68,0.96,0.24,2.10,1.54,1.54
-8.14,1.16,0.46,-0.21,-0.21,-0.77
-7.93,1.37,0.67,-2.52,-2.52,-3.15
-7.42,0.88,0.41,-12.32,-12.46,-12.46
-7.62,0.33,0.08,-22.12,-22.12,-22.12
-7.91,0.27,-0.05,-21.63,-21.70,-21.70
-7.85,0.57,-0.27,-21.70,-21.63,-21.63
-8.64,0.50,-0.18,-21.21,-21.21,-21.00
-7.37,0.35,-0.37,-20.16,-19.74,-19.46
-8.95,0.36,-0.42,-17.85,-17.85,-17.85
-9.80,0.33,0.05,-16.80,-16.73,-16.73
-9.65,0.44,-0.27,-15.26,-14.63,-14.63
-9.32,0.72,-0.53,-13.58,-13.58,-13.58
-9.71,0.65,-0.43,-13.65,-13.65,-13.65
-10.03,0.60,-0.30,-13.30,-13.30,-13.30
-9.86,0.59,-0.83,-12.39,-12.32,-12.32
-10.15,0.76,-0.85,-12.95,-13.16,-13.16
-11.08,0.91,-0.31,-16.66,-16.66,-17.22
-11.23,0.59,-0.38,-19.95,-19.95,-20.44
-11.03,0.26,-0.36,-20.37,-20.37,-20.37
-10.94,-0.02,-0.53,-19.11,-18.83,-18.83
-11.05,0.13,-0.32,-17.99,-17.99,-17.99
-11.10,0.13,-0.06,-18.34,-18.34,-18.34
-10.60,0.18,-0.01,-18.90,-18.90,-18.90
-10.83,0.45,0.18,-18.69,-18.62,-18.62
-11.51,0.73,0.34,-18.62,-18.62,-18.55
-11.51,0.92,0.56,-18.34,-18.34,-18.13
-11.14,0.90,0.74,-15.75,-15.75,-15.75
-10.90,1.09,0.77,-12.46,-11.34,-11.34
-11.17,1.22,0.86,-7.98,-7.56,-7.14
-11.42,1.19,0.85,-5.46,-5.46,-5.46
-11.03,1.01,0.79,-2.17,-2.17,-2.17
-10.57,0.92,0.85,1.40,1.40,1.40
-11.16,0.93,1.11,0.56,0.35,0.35
-10.95,0.92,1.11,-0.63,-0.77,-0.77
-10.45,0.85,0.93,-1.05,-1.05,-1.12
-9.73,0.81,0.84,-0.70,-0.56,-0.56
-9.71,1.02,0.96,-1.40,-1.40,-1.82
-10.25,1.06,1.20,-4.62,-4.62,-4.62
-10.32,0.76,1.04,-6.44,-6.44,-6.44
-10.45,0.45,1.01,-6.16,-6.16,-6.09
-10.37,0.45,1.00,-6.30,-6.30,-6.58
-10.47,0.55,1.07,-9.59,-9.59,-10.15
-10.45,0.53,1.07,-12.95,-12.95,-13.44
-10.29,0.29,1.04,-17.15,-17.15,-17.57
-10.15,0.12,1.05,-20.58,-20.58,-20.58
-9.95,0.10,1.09,-23.52,-23.52,-23.52
-9.89,0.20,1.17,-26.53,-27.02,-27.02
-9.98,0.21,1.37,-29.05,-29.05,-29.05
-10.10,0.17,1.59,-28.98,-28.77,-28.77
-10.52,0.11,1.74,-27.93,-27.37,-27.37
-10.79,0.14,1.94,-27.02,-26.95,-27.02
-10.78,0.04,2.06,-27.79,-27.72,-27.72
-10.62,-0.08,2.13,-28.63,-28.63,-28.84
-10.54,-0.12,2.12,-29.68,-30.38,-30.38
-10.50,-0.11,2.12,-32.06,-32.06,-32.06
-10.56,-0.17,2.31,-24.22,-23.38,-23.38
-10.51,-0.14,2.41,-19.67,-16.94,-16.94
-10.37,-0.11,2.62,-11.90,-9.73,-8.75
-10.18,0.15,2.90,-1.19,-1.19,-1.19
-10.06,0.44,3.15,6.72,6.72,7.56
-9.99,0.75,3.40,13.37,14.21,14.21
-9.97,1.06,3.67,18.90,18.90,19.32
-9.74,1.28,3.58,20.72,20.72,20.72
-9.73,1.34,3.38,20.58,20.58,20.58
-10.02,1.33,3.28,18.97,18.97,18.97
-10.32,1.23,3.17,16.03,16.03,16.03
-10.67,1.03,3.10,14.49,14.49,14.49
-10.82,0.83,2.77,12.88,12.81,12.81
-10.97,0.69,2.37,11.69,11.55,11.55
-11.15,0.77,2.35,10.57,10.36,10.36
-11.02,0.84,2.07,7.77,7.56,7.56
-11.06,0.75,1.84,5.81,5.53,5.53
-11.10,0.60,1.75,4.62,4.62,4.62
-10.98,0.48,1.54,4.13,4.13,4.13
-10.82,0.51,1.51,2.38,2.38,2.24
-10.85,0.43,1.50,0.98,0.77,0.77
-11.09,0.20,1.65,-0.70,-0.84,-0.84
-11.46,-0.10,1.78,-1.82,-1.82,-1.82
-11.49,-0.40,1.75,-2.38,-2.38,-2.24
-11.21,-0.49,1.75,-1.61,-1.61,-1.61
-11.36,-0.63,1.79,-1.19,-1.12,-1.12
-11.32,-0.63,1.69,-0.77,-0.77,-0.77
-10.94,-0.56,1.50,-1.61,-1.61,-1.61
-10.60,-0.50,1.25,-3.36,-3.36,-3.36
-10.21,-0.47,1.16,-4.97,-4.97,-4.97
-10.02,-0.57,1.12,-5.53,-5.53,-5.32
-9.85,-0.58,0.89,-4.41,-4.41,-4.41
-9.95,-0.85,0.65,-3.92,-3.92,-3.92
-9.83,-1.01,0.55,-1.75,-1.75,-1.40
-10.12,-1.08,0.53,2.94,2.94,2.94
-10.22,-1.07,0.38,6.23,6.23,6.23
-10.28,-0.99,0.37,7.98,8.54,8.54
-9.95,-0.87,0.18,10.43,10.78,10.78
-9.84,-0.78,-0.05,12.39,12.39,12.46
-9.93,-0.62,-0.12,12.32,12.18,12.04
-9.76,-0.31,-0.17,10.92,10.71,10.71
-9.82,-0.19,-0.07,8.54,8.54,8.54
-9.69,-0.14,-0.03,6.51,6.51,6.44
-9.38,-0.22,-0.06,6.51,6.51,6.51
-9.18,-0.30,-0.18,8.19,8.89,8.89
-9.38,-0.17,-0.14,11.06,11.06,11.83
-9.61,-0.01,0.00,13.02,13.02,13.30
-9.68,0.06,-0.05,14.28,14.28,14.56
-9.71,0.06,-0.19,15.61,15.61,15.61
-9.81,0.07,-0.01,15.89,15.89,15.89
-9.49,0.01,0.01,15.12,15.12,15.12
-9.28,-0.08,-0.04,16.03,16.03,16.03
-9.37,-0.15,-0.06,17.64,17.71,17.71
-9.49,-0.16,0.04,18.27,18.27,18.27
-9.10,-0.21,0.04,18.20,18.20,18.20
-9.05,-0.03,0.22,19.18,19.18,19.18
-9.06,-0.06,0.32,20.02,20.02,20.02
-9.05,-0.26,0.31,21.42,21.42,21.42
-8.78,-0.31,0.29,24.29,24.85,24.85
-8.12,-0.03,0.22,28.00,28.21,28.21
-7.86,0.13,0.42,29.12,29.12,29.12
-7.98,0.04,0.44,31.15,31.15,31.15
-8.19,-0.06,0.22,34.65,34.65,34.65
-8.11,-0.05,-0.02,38.50,39.69,39.69
-8.10,0.19,-0.13,43.26,43.26,43.75
-8.50,0.27,-0.23,46.69,46.69,46.69
-8.60,0.27,-0.18,49.21,49.21,49.21
-8.74,0.38,-0.39,67.20,67.48,67.48
-8.58,1.03,-0.33,67.06,67.06,66.85
-8.77,1.48,0.09,62.23,62.23,62.23
-8.90,1.89,0.31,58.10,56.14,56.14
-8.75,2.13,0.78,49.07,48.02,48.02
-8.19,2.58,1.06,37.52,37.52,37.52
-7.88,2.98,1.15,23.59,23.59,21.56
-8.08,3.00,1.15,3.85,3.85,3.85
-7.66,2.92,1.18,-9.52,-9.52,-9.52
-7.83,2.62,0.91,-24.92,-24.92,-24.92
-9.08,2.03,0.93,-33.39,-33.39,-33.39
-9.82,1.57,0.98,-40.81,-41.30,-41.30
-10.32,1.37,0.93,-43.05,-43.26,-43.26
-10.40,1.24,0.89,-42.63,-42.21,-41.51
-9.74,1.20,0.55,-33.11,-33.11,-33.11
-9.16,1.30,0.64,-27.02,-26.39,-26.39
-8.79,1.39,0.59,-22.68,-22.12,-22.12
-8.26,1.27,0.15,-19.81,-19.53,-19.53
-8.23,1.23,0.33,-23.03,-23.03,-24.15
-7.93,1.17,0.72,-25.48,-25.48,-25.62
-8.17,0.91,0.66,-26.60,-26.60,-26.74
-8.15,0.88,0.35,-28.07,-28.07,-28.42
-7.60,0.85,0.21,-30.38,-30.66,-30.66
-7.36,0.77,0.35,-32.83,-32.83,-32.97
-7.91,0.37,0.12,-34.72,-34.72,-34.86
-7.68,0.17,-0.09,-34.86,-34.86,-34.86
-8.46,-0.14,-0.14,-36.33,-36.33,-36.33
-8.16,-0.26,-0.27,-36.75,-36.68,-36.68
-8.72,-0.46,-0.12,-35.63,-35.14,-34.86
-9.26,-0.66,-0.10,-32.90,-32.90,-32.90
-8.62,-0.45,-0.12,-30.24,-29.82,-29.82
-8.83,-0.46,0.40,-27.44,-27.09,-27.09
-8.75,-0.53,0.21,-23.87,-23.24,-23.24
-8.30,-0.38,0.04,-21.14,-20.16,-20.16
