aX,aY,aZ,gX,gY,gZ
-9.90,1.92,1.41,11.48,11.48,11.48
-9.72,1.75,1.34,8.96,8.96,8.96
-9.73,1.51,1.32,6.65,6.51,6.51
-9.83,1.45,1.37,5.11,5.11,4.90
-9.98,1.35,1.41,3.99,3.71,3.50
-9.90,1.30,1.31,2.80,2.52,2.52
-9.83,1.22,1.18,2.31,2.31,2.31
-10.04,1.05,1.12,3.15,3.36,3.36
-10.47,0.82,1.12,4.97,5.25,5.25
-10.88,0.74,1.16,6.65,7.28,7.28
-10.79,0.57,1.25,10.78,10.85,10.85
-10.63,0.56,1.23,11.97,12.32,12.32
-10.32,0.59,1.18,13.58,13.58,13.72
-9.97,0.65,1.10,14.70,14.70,14.70
-9.75,0.72,1.00,15.40,15.47,15.47
-9.77,0.89,1.02,15.54,15.54,15.54
-9.84,0.95,1.01,14.77,14.77,14.70
-10.03,0.99,0.99,13.86,13.86,13.79
-10.37,1.17,0.99,11.55,11.55,11.55
-10.80,1.48,1.00,8.89,8.89,8.89
-11.26,1.58,1.00,4.20,4.20,4.20
-12.69,1.72,1.39,-4.34,-4.76,-4.76
-12.69,1.65,1.46,-7.42,-7.84,-7.84
-12.56,1.60,1.63,-11.06,-11.06,-11.41
-12.16,1.50,1.65,-12.95,-13.51,-13.58
-11.56,1.34,1.68,-14.42,-14.63,-14.70
-11.21,1.12,1.68,-14.63,-14.63,-14.35
-11.25,0.99,1.82,-13.37,-13.37,-13.37
-11.33,0.95,1.90,-12.11,-12.11,-12.11
-11.25,0.93,1.97,-11.62,-11.55,-11.55
-10.97,0.94,2.10,-11.27,-11.27,-11.27
-10.93,1.00,2.18,-11.27,-11.27,-11.27
-10.95,1.22,2.43,-12.25,-12.25,-12.25
-10.81,1.54,2.53,-15.47,-15.47,-15.47
-10.39,1.81,2.50,-18.20,-18.20,-18.76
-9.94,1.73,2.41,-20.86,-20.86,-20.86
-9.73,1.64,2.32,-20.93,-20.79,-20.79
-9.47,1.44,2.20,-20.09,-20.09,-19.74
-9.24,1.52,2.05,-19.46,-19.46,-19.46
-9.36,1.82,1.97,-21.21,-21.21,-21.21
-9.41,1.91,1.93,-23.17,-23.45,-23.45
-9.73,1.95,1.99,-25.48,-25.48,-25.69
-9.95,1.70,1.99,-25.62,-25.62,-25.69
-9.68,1.45,1.87,-22.68,-22.68,-22.68
-9.26,1.19,1.79,-18.55,-18.55,-18.55
-8.85,1.14,1.75,-15.26,-14.42,-14.42
-9.08,1.25,1.86,-11.20,-11.20,-10.15
-9.50,1.37,2.01,-6.58,-6.58,-6.58
-9.60,1.52,2.10,-0.63,-0.63,-0.63
-9.27,1.53,2.04,2.52,3.01,3.01
-8.57,1.42,1.72,6.37,6.37,6.79
-7.56,1.25,1.56,8.61,8.61,8.75
-7.22,0.98,1.61,10.22,10.22,10.50
-7.37,0.57,1.87,13.44,13.44,14.07
-7.46,-0.27,1.87,19.18,20.02,20.02
-6.41,-1.09,1.49,28.77,28.77,29.68
-5.32,-1.26,1.48,35.42,35.42,36.05
-4.14,-1.76,1.35,41.16,41.16,41.16
-3.43,-2.47,1.12,50.89,50.89,52.01
-3.28,-2.95,0.48,63.70,63.70,63.70
-3.83,-2.64,-0.71,69.02,69.02,69.02
-6.01,-1.21,-1.98,65.10,65.10,65.10
-11.12,1.12,-1.90,52.08,52.08,52.08
-14.91,2.23,0.44,23.24,19.53,19.53
-14.89,1.60,1.64,-3.57,-7.07,-7.07
-13.49,0.21,1.06,-26.39,-28.42,-28.42
-12.60,-0.73,0.56,-37.10,-38.01,-38.22
-10.07,-2.11,0.06,-35.98,-35.98,-32.76
-7.78,-3.32,0.17,-24.99,-24.99,-23.45
-6.63,-3.99,1.12,-3.85,-3.85,-1.54
-6.96,-4.00,1.67,12.25,12.25,12.25
-8.04,-3.38,2.03,27.72,27.72,29.26
-8.73,-2.59,1.90,35.91,35.91,36.40
-9.64,-1.92,1.86,34.86,34.86,34.86
-10.61,-1.42,1.97,28.77,26.04,26.04
-10.90,-1.15,1.96,17.08,13.93,13.93
-10.34,-1.15,1.70,3.64,3.64,2.38
-9.44,-1.36,1.45,-8.54,-8.54,-8.54
-8.51,-1.77,1.25,-14.35,-14.35,-14.35
-7.96,-2.11,1.17,-18.62,-18.62,-18.62
-7.71,-2.15,1.12,-19.88,-19.88,-19.88
-7.78,-1.91,1.19,-20.93,-21.63,-21.63
-8.40,-1.68,1.53,-23.66,-23.66,-23.66
-8.97,-1.31,1.63,-27.72,-27.72,-27.72
-8.71,-1.29,1.53,-31.01,-31.01,-31.01
-8.06,-1.56,1.51,-32.62,-33.11,-33.11
-8.40,-1.63,1.91,-33.81,-33.81,-33.81
-8.68,-1.47,2.15,-32.69,-32.69,-32.69
-8.48,-1.33,2.28,-31.29,-30.80,-30.80
-8.28,-1.39,2.34,-29.12,-28.42,-28.42
-8.38,-1.12,2.59,-26.53,-25.83,-25.83
-8.45,-0.75,2.87,-24.01,-24.01,-23.45
-7.59,-0.76,2.76,-21.00,-21.00,-21.00
-7.49,-0.77,2.57,-19.32,-18.90,-18.90
-8.09,-0.45,2.42,-17.50,-16.94,-16.94
-8.20,-0.32,2.27,-15.12,-14.56,-14.56
-8.41,-0.35,2.11,-12.95,-11.90,-11.90
-8.84,-0.53,1.98,-9.66,-9.66,-9.66
-9.50,-0.22,1.87,-7.42,-7.42,-7.14
-9.44,-0.02,1.83,-5.88,-5.88,-5.88
-9.57,-0.16,1.99,-4.62,-4.62,-4.62
-9.83,-0.17,2.05,-2.38,-2.38,-2.38
-9.64,0.06,1.89,1.19,1.19,1.19
-9.18,0.17,1.76,3.08,3.71,3.71
-8.88,-0.22,1.78,6.16,6.16,7.14
-9.32,-0.16,1.81,10.57,11.13,11.13
-9.06,0.32,1.55,14.77,14.77,15.26
-9.03,0.37,1.46,16.45,16.45,16.59
-9.82,0.33,1.62,16.87,16.87,16.87
-10.31,0.39,1.55,17.08,17.08,17.08
-9.75,0.53,1.43,17.22,17.08,17.08
-9.34,0.64,1.40,16.24,16.24,15.89
-10.29,0.86,1.58,14.21,14.21,13.58
-11.22,1.42,1.74,11.27,11.27,10.50
-10.85,1.87,1.79,7.91,7.91,7.91
-10.13,1.89,1.99,3.78,3.78,3.78
-10.00,1.69,2.36,1.47,1.47,1.05
-10.42,1.56,2.73,1.26,1.26,1.82
-10.38,1.18,2.92,5.53,6.09,6.09
-10.37,0.64,3.26,10.85,10.85,11.27
-10.85,0.24,3.54,13.23,14.00,14.42
-11.57,0.22,3.79,17.08,17.08,17.08
-11.18,0.24,3.72,20.65,20.65,20.65
-10.94,0.30,3.79,23.45,23.73,23.73
-10.81,0.34,3.88,25.13,25.13,25.13
-10.83,0.62,3.79,25.90,25.90,25.97
-10.66,0.96,3.60,25.97,25.76,25.76
-10.35,1.10,3.33,24.36,24.36,24.22
-10.60,0.84,3.20,22.89,22.89,22.61
-11.10,0.64,2.94,21.84,21.84,21.84
-11.27,0.61,2.79,21.56,21.42,21.42
-10.60,0.48,2.11,19.46,19.46,19.18
-10.15,0.60,1.88,18.27,18.13,18.13
-9.74,0.58,1.63,17.08,17.08,17.01
-9.38,0.54,1.39,15.68,15.68,15.75
-9.34,0.56,1.20,14.70,14.70,14.63
-9.49,0.67,1.17,13.65,13.23,12.88
-9.66,0.73,1.12,11.48,11.48,10.57
-9.66,0.69,1.13,9.03,9.03,8.19
-9.86,0.60,1.12,6.65,6.65,6.65
-10.27,0.40,1.10,6.30,6.30,6.30
-12.39,0.18,1.44,10.15,10.15,10.36
-12.44,0.23,1.47,12.88,12.88,13.09
-12.31,0.31,1.51,14.70,14.70,14.70
-12.04,0.39,1.63,16.66,16.66,17.08
-11.55,0.45,1.66,18.48,18.48,18.97
-11.29,0.51,1.69,19.81,19.95,20.02
-11.14,0.54,1.67,19.95,19.67,19.32
-11.14,0.60,1.59,17.92,17.64,17.64
-10.98,0.62,1.49,13.93,13.51,13.51
-11.03,0.66,1.47,10.99,10.43,9.24
-11.57,0.67,1.41,6.58,6.02,6.02
-11.82,0.65,1.38,2.10,1.75,1.75
-11.63,0.63,1.37,-0.14,-0.14,-0.56
-11.42,0.82,1.44,-3.01,-3.22,-3.22
-10.78,0.99,1.65,-9.24,-9.24,-9.59
-10.32,0.97,1.58,-11.06,-11.20,-11.20
-10.00,0.86,1.46,-12.18,-12.18,-12.32
-9.92,0.99,1.43,-12.95,-12.95,-12.95
-10.25,1.09,1.44,-14.42,-14.42,-14.42
-10.08,1.12,1.41,-15.19,-15.19,-15.19
-9.89,1.13,1.36,-15.75,-15.75,-15.75
-9.80,1.02,1.33,-15.19,-15.19,-15.19
-9.81,1.11,1.48,-14.07,-14.07,-14.07
-9.80,1.28,1.51,-13.09,-13.09,-13.09
-9.51,1.51,1.56,-12.81,-12.81,-12.81
-9.05,1.60,1.57,-13.30,-13.30,-13.30
-8.90,1.60,1.62,-13.51,-13.51,-13.51
-9.32,1.67,1.54,-12.74,-12.39,-12.39
-9.39,1.72,1.36,-10.64,-10.64,-10.64
-9.57,1.65,1.53,-8.61,-8.61,-8.40
-10.07,1.57,1.64,-6.65,-6.65,-6.23
-9.38,1.16,1.48,-2.38,-2.38,-2.38
-8.51,0.54,1.24,3.08,3.08,3.08
-8.02,-0.10,1.08,12.39,12.39,12.39
-7.88,-0.20,1.12,18.76,19.67,19.67
-8.15,-0.01,1.29,26.32,27.09,27.09
-8.00,0.02,1.31,32.06,32.06,32.34
-7.33,0.00,1.36,33.04,33.18,33.04
-5.96,-0.71,1.17,33.60,33.60,34.86
-4.28,-2.53,0.70,39.62,39.62,40.95
-3.33,-3.80,0.15,55.23,55.23,56.98
-3.73,-3.43,-0.21,66.43,66.43,69.37
-4.62,-1.87,-0.91,70.42,70.42,70.14
-6.62,-0.16,-1.95,59.08,59.08,57.05
-8.88,0.19,-1.46,40.95,40.95,38.22
-12.46,0.17,-0.24,23.87,17.78,17.78
-13.78,-0.45,0.90,-2.59,-5.25,-5.25
-12.90,-0.89,0.78,-25.20,-25.20,-27.09
-12.06,-1.57,0.51,-35.98,-35.98,-37.03
-9.98,-2.59,0.33,-39.13,-39.13,-38.71
-8.19,-3.91,0.63,-31.85,-31.85,-31.85
-6.93,-4.60,1.01,-23.73,-22.12,-22.12
-6.52,-4.91,1.47,-7.84,-7.84,-6.44
-7.08,-4.56,1.82,1.68,1.68,2.31
-8.13,-3.66,2.04,4.69,4.69,4.69
-8.99,-2.94,2.10,2.52,2.52,2.03
-9.26,-2.76,1.98,-0.49,-1.47,-2.03
-9.59,-2.57,1.74,-6.23,-6.23,-6.23
-10.01,-2.58,1.53,-11.55,-11.55,-11.55
-9.59,-2.82,1.15,-14.77,-14.84,-14.84
-8.82,-3.07,0.90,-15.12,-15.05,-15.05
-8.54,-3.15,0.79,-13.72,-13.72,-13.37
-8.59,-2.99,0.69,-11.34,-11.34,-11.27
-8.32,-2.84,0.62,-9.17,-9.17,-8.96
-8.25,-2.59,0.59,-7.84,-7.84,-7.84
-7.76,-2.46,0.58,-7.42,-7.42,-7.42
-7.73,-2.24,0.47,-7.35,-7.35,-7.49
-8.10,-1.87,0.47,-8.54,-8.54,-8.54
-8.01,-1.76,0.45,-11.20,-11.20,-11.20
-8.07,-1.68,0.53,-13.65,-13.65,-13.65
-7.73,-1.86,0.68,-15.12,-15.19,-15.19
-7.79,-1.81,0.88,-16.24,-16.24,-16.52
-8.99,-1.27,0.87,-18.62,-18.62,-18.97
-8.75,-1.15,0.87,-22.12,-22.12,-22.12
-7.34,-1.49,0.93,-23.87,-24.08,-24.08
-6.81,-1.50,1.05,-24.78,-24.99,-24.99
-8.40,-0.92,1.13,-26.60,-26.74,-26.74
-9.13,-0.74,1.35,-28.21,-28.21,-28.21
-8.82,-1.05,1.66,-27.86,-27.86,-27.65
-8.76,-1.15,1.66,-26.81,-26.81,-26.74
-8.33,-1.03,1.17,-24.64,-24.64,-24.64
-9.12,-0.89,0.87,-22.96,-22.96,-22.75
-10.09,-1.14,0.87,-21.00,-21.00,-21.00
-9.95,-1.47,0.59,-16.03,-15.40,-15.40
-9.47,-1.15,0.39,-10.50,-10.50,-10.50
-9.87,-0.82,0.08,-5.88,-5.39,-5.39
-10.50,-0.78,0.18,-3.57,-2.17,-2.17
-10.15,-1.02,0.20,0.42,2.45,2.45
-9.45,-1.15,0.23,6.09,6.86,8.54
-8.89,-1.40,-0.03,15.05,15.05,15.89
-10.36,-1.60,0.01,22.33,22.33,22.33
-12.01,-1.18,0.20,26.81,26.81,26.81
-11.42,-0.69,0.22,29.54,29.75,29.75
-10.78,-0.36,0.32,29.33,29.33,29.19
-10.69,0.17,0.29,26.11,26.11,25.62
-10.91,0.43,0.30,21.91,21.91,21.35
-11.39,0.17,0.51,17.99,17.99,17.99
-11.44,-0.47,0.65,18.13,18.55,18.55
-11.00,-0.71,0.78,20.44,21.00,21.00
-10.49,-0.48,0.76,22.12,22.19,22.19
-10.71,-0.18,0.86,21.42,21.42,21.00
-10.89,-0.44,0.92,20.16,20.16,20.02
-11.60,-0.95,1.12,21.14,21.14,21.14
-12.16,-1.18,1.24,24.36,24.71,24.71
-12.22,-1.07,1.16,26.25,26.53,26.67
-11.95,-0.95,1.10,26.18,26.18,26.18
-11.85,-0.81,0.92,24.36,24.22,24.22
-11.49,-0.77,0.67,23.03,23.03,23.03
-11.42,-0.96,0.47,22.40,22.40,22.40
-11.81,-0.97,0.43,21.91,21.49,21.49
-12.15,-0.59,0.39,19.25,19.25,18.06
-12.11,-0.42,0.26,14.98,14.28,14.28
-11.85,-0.39,0.10,7.49,6.65,6.65
-11.89,-0.44,0.03,1.82,1.12,1.12
-12.28,-0.67,0.00,-2.52,-3.01,-3.01
-12.68,-0.88,-0.01,-7.49,-7.49,-7.84
-13.15,-1.02,0.05,-9.38,-9.87,-10.15
-13.38,-1.07,0.19,-10.99,-11.20,-11.27
-13.20,-1.23,0.33,-11.48,-11.48,-11.20
-13.46,-1.56,0.59,-9.17,-9.17,-9.17
-13.95,-1.85,0.88,-5.04,-4.55,-4.55
-13.47,-1.65,0.93,-1.96,-1.47,-1.47
-12.31,-1.27,0.80,0.77,0.77,0.84
-11.18,-0.73,0.76,1.05,0.77,0.63
-10.33,-0.27,0.74,-1.05,-1.40,-1.40
-10.12,0.16,0.91,-5.81,-5.81,-6.44
-9.99,0.32,0.96,-10.36,-10.36,-10.99
-10.28,0.52,1.16,-14.28,-14.28,-14.84
-10.50,0.46,1.23,-18.97,-18.97,-18.97
-10.67,0.56,1.28,-21.00,-21.49,-21.49
-10.31,0.52,1.29,-22.68,-23.03,-23.03
-10.04,0.67,1.35,-24.36,-24.36,-24.78
-9.58,0.81,1.35,-26.18,-26.18,-26.74
-9.39,1.15,1.33,-29.12,-29.12,-29.12
-9.01,1.25,1.32,-30.87,-31.08,-31.08
-8.82,1.29,1.41,-32.76,-32.76,-32.83
-8.49,1.08,1.43,-32.48,-32.48,-32.27
-8.94,0.99,1.67,-30.66,-30.66,-30.38
-9.52,1.13,1.89,-29.40,-29.40,-29.40
-10.06,1.27,2.12,-30.66,-30.66,-31.15
-9.95,1.09,2.29,-32.62,-32.62,-32.62
-8.76,0.24,1.89,-30.31,-30.31,-30.31
-7.58,-0.64,1.51,-24.71,-23.52,-23.52
-6.94,-1.14,1.21,-13.23,-12.04,-12.04
-7.23,-0.99,1.24,-6.02,-6.02,-6.02
-7.91,-0.55,1.67,-1.33,-0.70,-0.70
-7.95,-0.82,1.61,5.32,6.09,6.09
-7.27,-1.22,1.38,12.88,14.14,14.14
-6.38,-1.58,1.19,19.25,21.35,22.47
-5.10,-1.94,0.72,27.79,27.79,30.80
-4.03,-1.91,0.61,35.70,53.62,36.40
-4.15,-1.58,1.02,41.58,41.58,42.21
-4.47,-2.20,0.65,47.95,47.95,48.65
-5.23,-2.55,0.19,51.66,51.66,51.66
-7.54,-1.81,0.06,50.19,48.58,48.58
-10.12,-0.60,0.24,41.23,41.23,37.94
-12.19,-0.05,0.76,23.31,23.31,23.31
-11.78,-0.40,0.64,3.57,3.57,-0.84
-10.74,-1.31,0.53,-11.13,-11.13,-11.13
-10.44,-2.47,0.64,-18.34,-18.34,-18.34
-9.91,-3.14,0.66,-16.31,-16.31,-16.31
-8.91,-3.83,0.61,-11.13,-8.96,-8.96
-8.14,-4.18,0.60,-1.54,-1.54,1.05
-7.99,-4.35,0.66,9.45,9.45,9.45
-8.67,-3.99,0.59,27.51,27.51,28.21
-9.03,-3.49,0.44,30.38,30.38,30.38
-9.69,-2.70,0.34,27.44,25.69,25.69
-9.82,-1.78,0.08,17.43,16.03,16.03
-9.01,-1.99,-0.11,-13.37,-13.37,-14.07
-8.61,-1.90,-0.19,-20.93,-20.93,-20.93
-8.50,-1.57,-0.19,-26.11,-26.11,-26.11
-7.93,-1.68,-0.13,-31.01,-31.01,-31.50
-7.72,-1.62,-0.13,-33.67,-33.67,-33.95
-7.71,-1.63,-0.12,-35.77,-35.77,-35.77
-7.27,-1.83,-0.07,-35.63,-35.63,-35.63
-7.46,-1.64,-0.05,-35.14,-35.07,-35.07
-7.92,-1.48,0.09,-35.21,-35.21,-35.07
-8.04,-1.60,0.23,-34.44,-34.44,-34.30
-8.85,-1.43,0.52,-32.27,-32.27,-31.99
-8.81,-1.57,0.70,-29.12,-29.12,-28.56
-8.03,-1.70,0.84,-24.78,-24.78,-24.29
-8.66,-1.71,0.96,-22.05,-21.21,-20.93
-9.11,-1.46,1.09,-19.04,-19.04,-17.71
-9.00,-1.27,1.16,-15.40,-15.40,-15.19
-8.76,-1.23,1.18,-13.37,-13.37,-12.95
-9.54,-1.05,0.99,-8.54,-8.54,-8.54
-10.09,-0.89,0.87,-6.09,-5.88,-5.88
-9.51,-1.13,0.89,-3.92,-3.64,-3.64
-9.54,-1.20,1.04,-0.98,-0.98,-0.70
-10.85,-0.78,0.78,3.15,3.15,3.57
-10.05,-0.92,0.89,4.90,4.90,4.97
-10.26,-0.79,0.91,4.48,4.48,4.13
-10.24,-0.40,0.71,3.71,3.71,3.71
-10.21,-0.26,0.76,3.57,3.57,3.57
-10.42,-0.63,0.96,3.64,3.64,3.64
-10.69,-0.57,1.13,3.50,3.50,3.50
-10.34,-0.50,1.17,3.36,3.43,3.43
-9.52,-0.72,1.27,3.08,3.08,3.08
-9.01,-0.85,1.45,3.50,3.50,3.50
-9.59,-0.94,1.64,4.69,4.69,4.69
-9.72,-1.06,1.86,7.14,7.14,7.56
-9.44,-1.26,1.98,11.48,11.48,11.48
-9.29,-1.20,2.08,14.42,14.42,14.42
-10.02,-1.00,2.25,17.01,17.01,17.01
-10.44,-1.12,2.31,18.55,18.83,18.83
-10.69,-1.31,2.34,20.72,21.14,21.14
-10.94,-1.21,2.20,23.38,23.38,23.52
-10.94,-0.98,1.98,23.45,23.45,23.45
-11.51,-0.80,1.80,21.49,21.49,21.49
-11.98,-0.66,1.56,17.85,17.57,17.57
-12.12,-0.75,1.28,15.12,14.84,14.84
-12.03,-0.83,1.05,12.67,12.25,12.25
-11.89,-0.86,0.94,10.43,10.08,10.08
-11.72,-0.84,0.85,8.68,8.47,8.47
-11.47,-0.80,0.80,7.42,7.35,7.35
-11.52,-0.88,0.70,4.69,4.69,4.41
-11.86,-1.13,0.70,2.52,2.52,2.38
-12.30,-1.24,0.75,0.00,0.00,0.00
-12.50,-1.38,0.75,-1.33,-1.75,-1.75
-12.31,-1.63,0.73,-2.66,-2.66,-2.66
-12.13,-1.83,0.80,-2.38,-2.24,-2.24
-11.82,-2.00,0.84,-1.47,-1.47,-1.47
-11.65,-1.81,0.94,-0.91,-0.91,-0.91
-11.40,-1.58,1.04,-1.61,-1.61,-1.96
-11.29,-1.27,1.33,-3.78,-3.99,-3.99
-11.10,-1.32,1.45,-5.39,-5.53,-5.53
-11.16,-1.29,1.67,-6.51,-6.51,-6.65
-11.06,-1.19,1.77,-8.40,-8.40,-8.75
-10.70,-1.04,1.77,-10.36,-10.99,-11.34
-9.60,-1.14,1.64,-14.28,-14.21,-14.21
-9.92,-1.33,1.77,-12.25,-12.25,-12.25
-10.74,-1.17,2.04,-11.20,-11.20,-11.20
-10.59,-0.99,2.05,-11.97,-11.97,-11.97
-10.11,-0.69,1.93,-14.49,-14.49,-14.49
-9.54,-0.62,1.81,-15.61,-15.61,-15.61
-9.63,-0.58,1.79,-16.03,-15.96,-15.96
-9.98,-0.59,1.79,-15.96,-16.03,-16.03
-10.32,-0.53,1.79,-16.66,-16.80,-16.80
-10.19,-0.54,1.78,-18.20,-18.20,-18.34
-10.19,-0.55,1.81,-19.18,-19.18,-19.18
-10.25,-0.73,1.71,-18.97,-18.97,-18.97
-10.55,-0.71,1.71,-17.71,-17.57,-17.57
-10.66,-0.53,1.67,-17.57,-17.57,-17.71
-10.25,-0.33,1.66,-18.83,-19.25,-19.60
-9.71,-0.26,1.63,-21.07,-21.28,-21.28
-9.85,-0.46,1.56,-20.79,-20.79,-20.44
-10.81,-0.54,1.64,-18.06,-17.01,-17.01
-11.31,-0.61,1.59,-13.65,-13.65,-13.37
-11.05,-0.56,1.50,-11.90,-11.34,-11.06
-10.06,-0.69,1.36,-9.24,-9.24,-7.98
-9.12,-0.73,1.36,-5.32,-5.32,-4.62
-8.28,-2.42,1.15,3.64,3.64,4.76
-7.86,-1.33,1.11,12.53,12.53,12.53
-7.76,-1.30,1.48,18.90,18.90,18.90
-8.42,-0.80,1.82,21.07,21.42,21.42
-8.59,-0.65,2.28,22.33,22.33,22.61
-7.62,-1.37,2.12,25.83,25.83,25.83
-6.59,-2.05,1.75,33.11,34.09,34.09
-5.52,-2.62,1.43,40.32,41.37,41.37
-5.06,-2.65,1.57,48.16,48.16,49.00
-4.68,-2.65,1.90,56.35,56.35,57.12
-4.20,-3.00,1.66,61.39,61.39,61.39
-3.62,-3.31,0.67,66.29,66.29,66.29
-4.63,-2.62,0.19,63.70,63.70,63.70
-7.90,-1.06,0.33,54.39,36.47,52.22
-11.08,-0.47,0.61,26.11,26.11,26.11
-11.88,-0.82,0.52,5.88,-0.49,-0.49
-11.97,-1.68,0.49,-18.20,-23.31,-23.31
-11.16,-2.68,0.62,-35.35,-35.35,-38.36
-10.31,-3.61,0.74,-43.89,-43.89,-43.89
-9.14,-4.74,0.80,-42.63,-42.63,-41.72
-8.21,-5.25,0.67,-29.26,-29.26,-29.26
-7.62,-5.35,0.56,-14.70,-14.70,-14.70
-7.37,-5.26,0.48,-2.31,-2.31,-2.31
-7.93,-4.85,0.42,9.59,10.57,10.57
-8.69,-4.39,0.34,14.49,16.10,16.10
-9.13,-3.74,0.09,16.87,16.59,16.59
-9.65,-3.00,0.01,12.46,11.55,11.55
-9.85,-2.77,-0.06,4.90,4.90,3.71
-9.42,-2.90,-0.27,-5.67,-5.67,-5.67
-9.10,-2.95,-0.30,-10.01,-11.20,-11.20
-8.98,-2.87,-0.23,-14.70,-14.70,-15.82
-8.86,-2.67,-0.26,-19.88,-19.88,-19.88
-8.41,-2.65,-0.39,-23.52,-23.52,-23.52
-8.64,-2.50,-0.41,-25.76,-26.39,-26.39
-8.90,-2.31,-0.43,-28.56,-29.33,-29.33
-8.89,-2.10,-0.45,-31.50,-31.50,-32.34
-8.77,-2.09,-0.59,-34.65,-34.65,-34.65
-8.22,-2.43,-0.73,-36.61,-36.61,-36.61
-8.93,-2.02,-0.64,-37.45,-37.45,-37.45
-9.11,-1.68,-0.64,-37.80,-37.73,-37.73
-8.22,-2.14,-0.75,-37.03,-37.03,-36.54
-8.34,-2.37,-0.74,-33.67,-33.32,-33.32
-9.53,-1.79,-0.55,-29.68,-29.68,-29.26
-9.24,-1.77,-0.49,-26.81,-26.81,-26.46
-8.45,-2.04,-0.42,-20.58,-20.58,-19.95
-7.74,-2.13,-0.35,-14.49,-14.49,-13.72
-8.16,-1.79,-0.22,-10.50,-10.50,-8.75
-9.09,-0.06,0.03,-6.51,-6.51,-5.81
-9.60,-0.86,0.26,-4.20,-4.20,-4.20
-8.53,-1.24,0.29,-1.96,-1.96,-1.96
-8.15,-1.25,0.22,-0.63,-0.56,-0.56
-9.27,-0.86,0.11,-0.35,-0.35,-0.35
-9.89,-0.94,0.18,0.00,0.00,0.00
-9.00,-1.59,0.20,3.08,3.57,3.57
-8.51,-1.79,0.08,6.72,7.21,7.21
-9.05,-1.19,-0.04,10.64,10.64,10.85
-9.60,-0.94,0.08,11.62,11.62,11.62
-9.89,-0.96,0.24,12.53,12.53,12.53
-9.74,-1.23,0.39,14.21,14.84,14.84
-9.52,-1.27,0.48,17.08,17.08,17.92
-9.60,-1.41,0.55,19.81,20.09,20.58
-10.90,-1.23,0.78,22.12,22.40,22.40
-11.05,-1.04,0.97,24.08,24.08,24.36
-10.43,-0.89,1.04,24.85,24.85,24.85
-9.81,-0.75,1.13,24.29,23.87,23.87
-9.96,-0.40,1.18,22.26,22.26,21.63
-9.99,-0.31,1.23,19.18,19.18,19.18
-10.27,-0.42,1.32,17.15,17.15,17.15
-10.72,-0.57,1.36,15.61,15.61,15.61
-11.07,-0.59,1.41,14.28,14.00,14.00
-10.76,-0.48,1.38,11.97,11.69,11.69
-10.29,-0.89,1.18,8.61,8.61,8.40
-10.64,-1.25,1.25,7.70,7.56,7.70
-11.13,-1.71,1.39,8.54,8.54,9.38
-11.59,-2.16,1.68,14.49,14.49,14.49
-11.27,-1.91,1.80,16.24,16.24,16.24
-10.75,-1.64,1.79,16.87,17.15,17.15
-10.75,-1.42,1.82,17.64,17.64,17.64
-11.36,-1.01,2.06,17.08,17.08,17.08
-11.95,-0.83,2.14,14.35,14.35,14.35
-12.23,-0.78,2.13,10.78,9.45,9.45
-12.21,-0.74,1.99,4.27,4.27,3.57
-11.58,-0.91,1.66,-2.31,-2.31,-3.15
-11.01,-1.24,1.49,-8.47,-9.59,-9.59
-10.77,-1.68,1.50,-12.39,-12.39,-12.95
-10.61,-2.20,1.51,-13.65,-13.65,-13.65
-10.48,-2.55,1.61,-12.53,-12.53,-12.53
-10.15,-2.68,1.66,-11.27,-10.78,-10.78
-9.93,-2.62,1.73,-9.17,-9.17,-9.17
-9.93,-2.60,1.87,-6.44,-6.44,-6.44
-10.58,-2.27,2.15,-4.27,-4.27,-4.27
-10.60,-2.02,2.26,-5.74,-5.74,-5.95
-10.42,-1.72,2.30,-7.35,-7.84,-8.19
-9.98,-1.63,2.30,-10.15,-10.15,-10.15
-11.16,-2.04,2.66,-11.41,-11.62,-12.04
-11.70,-2.19,2.83,-12.53,-12.60,-12.60
-11.94,-2.38,2.90,-12.32,-12.25,-12.25
-11.71,-2.30,2.85,-12.18,-12.18,-12.32
-10.98,-2.22,2.60,-13.72,-13.72,-13.72
-10.66,-2.07,2.50,-14.63,-14.84,-14.84
-10.27,-2.05,2.21,-15.33,-15.33,-15.47
-10.28,-2.23,1.89,-14.07,-14.07,-14.07
-11.12,-1.98,1.84,-12.95,-12.81,-12.81
-11.53,-1.67,1.76,-13.65,-13.65,-13.65
-11.34,-1.37,1.71,-17.71,-17.71,-17.71
-10.51,-1.49,1.53,-19.25,-19.25,-19.25
-10.33,-1.82,1.16,-17.50,-17.50,-17.50
-10.53,-1.85,0.96,-13.16,-13.16,-12.81
-10.21,-1.54,0.95,-11.76,-11.76,-11.83
-9.73,-1.10,0.97,-14.21,-14.21,-14.21
-9.28,-1.11,0.99,-15.75,-15.61,-15.61
-8.94,-1.49,0.84,-13.02,-13.02,-12.32
-9.69,-1.45,0.95,-4.90,-4.90,-4.90
-9.20,-1.46,0.81,-1.12,-1.12,-1.12
-8.37,-1.43,0.76,2.52,2.52,2.52
-7.94,-1.67,0.67,5.95,7.70,7.70
-8.84,-1.66,0.73,13.79,13.79,15.89
-8.96,-1.81,0.72,23.24,24.22,24.22
-8.82,-1.66,0.45,29.19,29.75,29.75
-7.32,-1.60,0.35,39.55,39.55,40.11
-5.93,-2.09,0.08,45.29,45.29,45.29
-6.35,-2.56,0.46,52.50,52.50,52.50
-6.57,-2.77,0.75,55.23,55.58,55.58
-5.95,-2.84,0.91,57.82,57.82,57.82
-5.64,-3.00,1.10,59.78,59.78,59.78
-6.19,-2.84,1.48,62.09,62.09,62.09
-6.09,-2.61,1.09,61.04,60.48,60.48
-6.25,-2.29,0.79,55.02,53.83,53.83
-6.85,-2.45,0.39,44.45,43.12,43.12
-8.50,-2.76,0.07,29.05,29.05,27.23
-10.52,-2.79,0.10,16.03,16.03,14.07
-10.94,-3.39,0.53,1.05,1.05,1.05
-10.75,-3.63,0.99,-13.72,-13.72,-13.72
-10.26,-3.75,1.05,-20.79,-21.70,-21.70
-9.26,-4.62,0.94,-26.32,-26.39,-26.39
-7.81,-5.56,0.78,-24.29,-23.52,-23.52
-6.95,-6.22,0.60,-13.65,-13.65,-12.25
-6.83,-6.32,0.69,-4.55,-3.36,-3.36
-7.58,-5.92,0.66,2.73,3.43,3.43
-8.41,-5.46,0.66,7.07,7.07,7.07
-9.11,-4.89,0.66,5.67,5.67,5.25
-9.56,-4.78,0.56,-0.42,-0.42,-0.42
-9.45,-4.65,0.43,-4.69,-6.02,-6.02
-9.03,-4.35,0.21,-11.97,-11.97,-11.97
-8.50,-4.01,0.08,-17.43,-19.39,-19.39
-8.28,-3.80,-0.04,-25.34,-25.34,-27.16
-8.56,-3.87,-0.07,-33.25,-33.25,-33.25
-8.67,-4.05,-0.14,-36.82,-36.82,-36.82
-8.77,-3.98,-0.17,-39.06,-39.55,-39.55
-8.97,-3.75,-0.30,-41.79,-41.79,-41.79
-8.88,-3.91,-0.41,-42.49,-42.35,-42.35
-8.75,-4.17,-0.44,-41.16,-40.67,-40.67
-8.91,-4.03,-0.47,-38.08,-38.08,-38.08
-8.62,-3.80,-0.51,-35.56,-35.56,-35.56
-7.83,-3.77,-0.64,-32.13,-31.64,-31.64
-7.58,-3.39,-0.61,-29.96,-29.54,-29.40
-7.86,-2.45,-0.33,-27.65,-27.65,-27.37
-8.02,-2.52,-0.04,-25.97,-25.97,-25.97
-8.02,-2.65,0.26,-22.33,-22.33,-22.33
-7.40,-2.53,0.42,-18.06,-18.06,-18.06
-7.86,-2.12,0.78,-15.26,-15.26,-15.26
-8.35,-1.69,1.14,-13.09,-12.95,-12.95
-8.08,-1.56,1.28,-11.69,-10.71,-10.71
-7.33,-1.67,1.36,-8.54,-8.19,-8.19
-7.52,-1.55,1.44,-4.83,-4.83,-4.62
-7.87,-1.22,1.38,-3.85,-3.85,-3.85
-8.13,-0.93,1.32,-4.06,-4.06,-4.41
-8.26,-1.09,1.23,-4.76,-4.76,-4.83
-8.61,-1.05,1.00,-3.71,-3.71,-3.57
-9.56,-0.69,0.94,-2.94,-2.94,-2.94
-8.94,-0.65,0.78,-2.31,-2.10,-2.10
-8.28,-0.95,0.78,-1.19,-0.56,-0.56
-9.56,-0.92,0.64,0.28,0.84,0.84
-10.52,-0.70,0.67,2.24,3.29,3.29
-10.05,-0.75,0.60,5.11,6.02,6.51
-10.79,-0.34,0.43,18.06,18.06,18.48
-10.84,-0.13,0.17,21.42,21.42,21.42
-10.79,-0.17,0.07,23.17,23.52,23.52
-11.72,-0.06,0.20,23.94,23.94,23.94
-12.40,0.12,0.32,22.47,22.47,22.47
-12.46,0.03,0.37,21.21,20.79,20.79
-11.83,-0.46,0.59,19.74,19.74,19.81
-10.87,-0.84,0.68,22.05,22.05,22.05
-10.29,-0.92,0.78,25.62,25.62,25.62
-10.40,-0.67,0.93,27.86,27.86,28.07
-10.73,-0.44,1.04,27.79,27.79,27.44
-11.06,-0.48,1.12,26.32,26.04,26.04
-11.37,-0.61,1.16,23.52,23.17,23.17
-11.56,-0.61,1.11,20.23,20.23,19.67
-11.67,-0.57,1.05,13.79,13.79,13.79
-11.59,-0.75,1.04,10.01,10.01,8.82
-11.21,-0.93,1.02,5.74,5.74,5.74
-10.67,-1.25,0.88,2.73,2.73,2.73
-10.29,-1.41,0.82,3.01,3.01,3.01
-10.14,-1.77,0.83,9.10,9.10,9.52
-10.15,-1.73,0.80,11.48,11.90,11.90
-10.27,-1.49,0.83,14.14,14.21,14.21
-10.47,-1.40,0.82,14.07,13.86,13.86
-10.63,-1.26,0.79,11.34,10.85,10.85
-10.68,-1.20,0.78,7.56,5.32,5.32
-10.60,-1.15,0.73,1.12,0.28,-1.26
-10.72,-1.20,0.79,-6.09,-6.65,-6.65
-11.07,-1.53,0.86,-9.45,-9.87,-9.87
-11.50,-1.90,0.92,-11.55,-11.55,-11.48
-11.76,-2.24,0.86,-11.27,-11.06,-10.85
-11.78,-2.36,0.75,-10.36,-10.36,-10.29
-11.76,-2.16,0.68,-10.78,-10.78,-10.78
-11.32,-1.93,0.63,-12.18,-12.18,-12.18
-11.11,-1.76,0.64,-13.79,-13.79,-13.79
-10.92,-1.61,0.72,-15.96,-15.96,-15.96
-10.91,-1.42,0.85,-17.57,-18.27,-18.27
-10.91,-1.26,0.98,-20.23,-20.23,-20.23
-10.82,-1.20,1.05,-22.05,-22.05,-22.05
-10.83,-1.18,1.12,-22.40,-22.40,-22.40
-11.17,-1.23,1.43,-21.00,-20.65,-20.65
-11.65,-1.07,1.67,-19.39,-19.04,-19.04
-11.56,-0.73,1.94,-17.15,-17.08,-17.08
-11.27,-0.40,1.98,-17.01,-17.01,-16.94
-10.83,0.08,1.84,-18.48,-18.48,-19.18
-10.19,0.42,1.68,-21.77,-21.77,-21.77
-9.87,0.72,1.50,-28.84,-28.84,-28.84
-9.43,0.57,1.29,-33.67,-34.51,-34.51
-9.41,0.40,1.04,-39.41,-39.41,-39.83
-9.84,0.37,1.01,-41.93,-41.93,-42.21
-10.20,0.41,1.16,-45.99,-45.99,-45.99
-10.45,0.40,1.30,-47.46,-47.46,-47.46
-10.46,-0.16,1.18,-45.57,-45.57,-45.57
-11.29,-0.37,1.37,-40.11,-40.11,-40.11
-12.07,-0.28,1.60,-36.12,-36.12,-18.20
-12.17,0.07,1.71,-32.55,-32.55,-32.55
-11.12,-0.15,1.43,-28.28,-28.28,-28.28
-10.15,-0.42,1.24,-22.54,-21.49,-21.49
-10.21,-0.25,1.19,-13.09,-13.09,-12.53
-10.35,0.05,1.23,-10.08,-10.08,-9.59
-10.08,0.11,1.34,-6.16,-6.16,-5.53
-8.91,-0.28,1.06,0.42,0.42,0.42
-8.84,-0.51,1.09,10.29,10.29,10.29
-8.82,-0.67,1.04,18.62,18.62,18.62
-8.31,-0.64,1.03,26.11,26.81,26.81
-7.94,-0.60,1.19,29.33,29.89,30.87
-7.93,-1.00,1.29,34.16,35.14,35.14
-8.79,-1.25,1.64,43.54,43.54,44.31
-8.91,-1.39,1.64,49.28,49.28,49.63
-7.50,-1.48,1.50,51.87,51.87,51.87
-6.09,-1.73,1.26,55.09,55.09,55.09
-6.06,-1.80,1.27,57.05,57.05,57.61
-6.11,-1.92,1.48,59.01,59.01,59.01
-5.25,-2.29,1.24,58.94,58.94,58.94
-5.06,-2.48,1.21,57.33,57.19,57.19
-5.70,-2.31,1.12,55.23,55.23,54.88
-6.66,-1.87,0.52,47.67,47.67,47.67
-7.55,-0.76,0.23,36.68,36.68,31.64
-8.98,-0.24,-0.08,14.63,14.63,14.63
-9.97,-1.18,-0.32,-11.83,-11.83,-11.83
-10.87,-1.88,-0.00,-24.78,-24.78,-24.78
-10.30,-2.68,0.45,-41.30,-41.30,-41.30
-9.66,-3.15,0.50,-39.90,-39.90,-39.90
-8.79,-3.90,0.56,-30.31,-28.84,-28.84
-7.88,-4.48,0.50,-21.07,-17.50,-15.82
-7.16,-4.69,0.41,-3.08,-3.08,-3.08
-7.48,-4.52,0.39,10.85,12.25,12.25
-8.48,-4.31,0.37,18.13,20.16,20.16
-9.49,-4.05,0.32,25.20,25.20,25.20
-10.03,-3.67,0.22,26.81,26.81,26.81
-9.96,-3.23,0.10,24.92,23.94,23.94
-9.56,-3.01,-0.18,19.81,19.81,19.25
-9.09,-3.11,-0.07,8.89,8.89,8.89
-8.66,-3.13,-0.04,3.36,3.36,3.36
-8.34,-2.98,-0.05,-0.14,-0.14,-0.56
-8.38,-2.82,0.00,-6.58,-6.58,-6.58
-8.46,-3.38,0.03,-15.96,-15.96,-15.96
-8.32,-3.31,-0.05,-16.66,-16.94,-16.94
-8.48,-3.23,-0.08,-17.78,-17.78,-18.06
-8.24,-3.53,-0.06,-18.48,-18.48,-18.48
-7.95,-3.68,-0.00,-16.87,-16.87,-16.87
-8.71,-3.30,0.22,-13.23,-13.23,-13.23
-7.99,-3.54,0.25,-10.57,-10.57,-10.57
-7.23,-3.62,0.36,-6.79,-6.44,-6.44
-6.99,-3.31,0.37,-4.76,-4.41,-4.20
-8.05,-2.62,0.71,-4.27,-4.27,-4.27
-8.49,-2.50,0.96,-5.04,-5.04,-5.04
-7.94,-2.79,1.04,-3.92,-3.92,-3.43
-7.26,-2.99,1.02,-1.68,-1.68,-1.68
-7.67,-2.39,0.88,-0.21,-0.21,-0.21
-7.97,-2.32,0.86,-0.35,-0.42,-0.42
-8.23,-2.58,1.10,-0.28,-0.28,0.00
-8.50,-2.57,1.37,1.26,1.26,1.26
-8.70,-2.07,1.43,1.47,1.33,1.33
-8.50,-1.97,1.36,0.63,0.63,0.42
-8.09,-2.33,1.61,-0.35,-0.35,-0.35
-8.44,-2.36,1.83,-0.14,0.00,0.00
-9.27,-1.84,2.04,0.28,0.28,0.28
-9.27,-1.81,2.03,0.14,0.14,0.14
-9.08,-1.94,2.24,0.28,0.28,0.28
-9.25,-1.89,2.12,0.35,0.35,0.35
-9.43,-1.55,2.01,0.28,0.28,0.28
-9.30,-1.12,1.86,-1.19,-1.40,-1.40
-9.26,-1.00,1.70,-4.48,-4.97,-4.97
-10.12,-0.81,1.36,-8.40,-8.96,-8.96
-10.28,-0.75,0.79,-12.88,-12.88,-13.30
-9.99,-1.06,0.48,-15.68,-16.03,-16.03
-10.34,-1.39,0.29,-18.97,-18.97,-19.11
-11.52,-1.46,0.16,-19.74,-19.74,-19.74
-11.93,-1.61,-0.01,-18.97,-18.97,-18.34
-11.50,-2.33,-0.28,-14.42,-14.42,-14.42
-11.18,-2.89,-0.31,-7.63,-7.63,-7.63
-11.51,-3.01,-0.27,-0.91,1.47,1.47
-11.71,-3.06,-0.17,11.34,11.34,11.34
-11.66,-3.21,-0.20,19.25,19.25,19.25
-11.95,-3.40,-0.22,28.56,28.56,28.56
-12.58,-3.06,-0.18,31.78,31.78,32.20
-12.75,-2.62,-0.13,31.22,30.80,30.80
-12.46,-2.81,-0.33,26.39,26.39,25.83
-12.22,-3.13,-0.46,23.17,23.17,23.17
-12.11,-3.16,-0.56,18.90,18.90,18.90
-11.72,-3.15,-0.67,15.54,14.21,14.21
-11.33,-3.20,-0.82,10.50,9.24,9.24
-11.27,-3.29,-0.81,6.23,5.11,5.11
-11.21,-3.38,-0.85,2.24,2.24,1.61
-11.00,-3.28,-0.82,-3.85,-3.85,-3.85
-10.66,-3.13,-0.71,-9.10,-9.10,-9.10
-10.49,-3.00,-0.61,-13.16,-13.16,-13.16
-10.56,-2.95,-0.27,-17.78,-18.41,-18.41
-10.83,-2.93,-0.00,-21.07,-21.35,-21.35
-11.25,-2.90,0.17,-22.68,-22.75,-22.75
-11.64,-2.95,0.29,-23.03,-23.10,-23.10
-11.81,-3.14,0.45,-22.47,-22.47,-21.49
-12.11,-3.47,0.54,-18.06,-18.06,-17.36
-12.39,-3.53,0.67,-13.30,-13.30,-12.81
-12.35,-3.29,0.79,-8.54,-8.54,-8.54
-12.01,-3.06,0.82,-6.09,-6.09,-6.09
-11.65,-2.98,0.82,-3.22,-2.80,-2.80
-11.40,-3.11,0.84,0.98,0.98,0.98
-11.67,-2.95,0.92,5.32,5.60,5.60
-11.27,-2.57,0.82,6.30,6.44,6.30
-11.17,-2.03,0.91,5.25,5.25,4.27
-10.90,-1.66,0.88,2.31,2.31,2.03
-10.96,-1.46,0.87,0.63,0.63,0.56
-10.66,-1.23,0.88,-0.49,-0.49,-0.63
-10.13,-1.07,0.88,-2.03,-2.03,-2.24
-9.74,-0.83,0.89,-3.92,-3.92,-4.13
-8.93,-0.85,0.85,-5.81,-5.81,-5.81
-8.28,-1.18,0.76,-5.81,-5.11,-5.11
-9.14,-1.28,0.96,-2.52,-2.52,-1.61
-9.55,-1.16,1.19,-0.07,-0.07,-0.07
-8.94,-0.97,1.08,-2.24,-2.59,-2.59
-8.00,-1.43,0.64,-4.97,-4.83,-4.83
-8.29,-1.66,0.86,-0.56,-0.56,-0.56
-8.91,-1.53,1.10,1.96,2.24,2.24
-8.61,-1.56,1.07,3.85,5.04,5.04
-7.69,-1.80,0.85,7.56,9.17,9.17
-7.29,-2.06,0.76,11.76,12.39,13.58
-8.58,-2.44,1.06,22.12,22.12,24.15
-8.37,-2.57,1.18,27.72,27.72,27.93
-8.15,-2.71,1.30,29.89,29.89,30.24
-7.90,-2.97,1.41,33.39,33.39,33.39
-6.58,-3.13,1.32,37.66,37.66,37.66
-4.99,-3.04,1.36,40.46,40.46,40.46
-4.29,-3.27,1.68,43.05,43.05,43.05
-4.51,-3.88,1.77,48.37,49.28,51.59
-4.66,-4.02,0.55,58.31,59.15,59.15
-5.61,-3.08,-0.54,60.41,60.41,59.71
-8.82,-1.78,-0.60,52.50,52.50,50.82
-11.82,-1.28,0.00,34.44,34.44,34.44
-13.03,-1.50,0.74,8.89,8.89,8.89
-12.35,-1.87,0.96,-9.94,-9.94,-9.94
-10.52,-2.44,0.71,-22.54,-22.54,-22.54
-8.64,-3.42,0.78,-29.68,-29.68,-29.68
-7.08,-4.16,1.08,-26.95,-26.95,-26.95
-6.09,-5.24,1.22,-18.41,-18.41,-18.41
-6.35,-5.27,1.38,-5.11,-5.11,-5.11
-7.49,-5.08,1.51,2.66,2.66,2.66
-8.51,-4.91,1.41,6.09,6.09,6.09
-9.13,-4.56,1.15,5.39,4.83,4.83
-9.92,-4.13,1.23,1.33,1.33,1.33
-10.01,-4.09,1.23,-4.55,-4.55,-4.55
-9.18,-4.40,1.05,-10.92,-10.92,-10.92
-8.64,-4.35,0.96,-15.40,-15.40,-15.40
-8.01,-4.16,0.65,-19.39,-19.39,-19.39
-7.15,-3.90,0.46,-21.49,-22.05,-22.05
-6.31,-3.46,0.38,-24.01,-24.01,-24.29
-6.82,-3.01,0.80,-27.72,-27.72,-27.72
-7.45,-2.34,1.16,-30.59,-31.08,-31.08
-7.74,-1.84,1.07,-36.26,-36.26,-37.03
-7.63,-1.87,0.79,-39.90,-39.90,-41.44
-7.67,-2.01,0.73,-43.68,-43.68,-44.03
-8.25,-2.15,1.18,-46.27,-46.27,-46.27
-8.71,-2.60,1.23,-45.78,-45.78,-45.50
-8.34,-3.24,0.80,-39.69,-39.69,-39.69
-8.05,-3.91,0.74,-32.48,-32.48,-32.48
-8.49,-3.70,0.78,-24.29,-24.29,-24.29
-9.55,-3.24,0.92,-17.15,-17.15,-17.15
-9.38,-3.28,0.90,-13.23,-11.76,-11.76
-8.96,-3.21,0.81,-6.86,-6.86,-6.86
-8.99,-2.64,0.99,-1.68,-1.26,-1.26
-9.18,-2.29,1.08,0.28,0.63,0.63
-9.21,-2.20,1.27,1.82,2.03,2.03
-8.79,-2.03,1.30,4.62,4.62,4.90
-8.33,-1.56,1.31,6.37,6.72,6.79
-8.25,-1.20,1.49,7.42,7.42,7.63
-8.61,-1.20,1.90,7.91,7.91,7.91
-9.13,-1.14,2.11,7.42,7.42,7.42
-9.48,-0.92,1.94,6.65,6.65,6.65
-9.34,-0.80,1.84,5.60,5.39,5.39
-8.96,-0.93,1.97,4.55,4.41,4.13
-9.44,-0.73,2.11,2.38,2.38,2.24
-9.96,-0.32,2.06,-0.28,-0.28,-0.49
-9.83,-0.03,2.13,-2.59,-2.59,-2.59
-9.34,-0.24,2.10,-4.97,-4.97,-4.97
-9.39,-0.62,2.07,-5.95,-5.95,-5.95
-9.45,-0.96,1.91,-5.46,-5.04,-5.04
-9.81,-1.26,1.83,-3.15,-3.15,-2.38
-9.93,-1.66,1.81,-0.14,-0.14,-0.14
-10.45,-1.95,1.82,3.36,4.20,4.20
-10.73,-1.68,1.68,6.16,6.16,6.58
-10.83,-1.29,1.41,7.07,7.07,7.07
-10.91,-1.15,1.22,5.67,5.67,5.67
-11.33,-1.15,1.20,4.13,4.13,4.06
-12.30,-1.08,1.27,2.45,2.45,2.45
-12.30,-1.29,1.14,2.31,2.31,2.31
-11.60,-1.82,0.82,3.92,4.20,4.20
-11.32,-2.14,0.56,8.12,8.12,8.75
-11.46,-1.94,0.55,11.62,11.90,11.90
-11.23,-1.48,0.34,11.90,11.90,11.48
-11.12,-0.90,0.19,8.47,6.86,6.02
-11.54,-0.73,0.00,1.68,1.68,-0.63
-12.39,-0.93,-0.19,-5.11,-5.11,-5.11
-12.54,-1.01,-0.31,-11.41,-11.41,-11.41
-12.41,-1.00,-0.36,-15.68,-17.15,-17.15
-12.21,-1.43,-0.45,-20.51,-20.51,-20.86
-12.06,-1.72,-0.41,-21.98,-21.98,-22.19
-11.98,-1.82,-0.24,-22.26,-22.26,-22.26
-11.79,-1.72,-0.08,-22.68,-22.68,-22.75
-11.81,-1.68,0.16,-23.03,-23.03,-23.03
-11.96,-1.91,0.29,-21.28,-21.28,-21.28
-12.38,-1.88,0.41,-16.87,-16.87,-16.87
-12.37,-1.81,0.41,-14.84,-14.84,-14.28
-11.83,-1.76,0.34,-12.60,-12.60,-12.60
-11.44,-1.51,0.49,-8.82,-8.82,-8.82
-11.14,-1.27,0.59,-7.14,-7.00,-7.00
-11.00,-0.89,0.79,-6.16,-6.16,-6.02
-10.68,-0.74,0.89,-6.09,-5.95,-5.95
-10.03,-0.83,0.77,-5.11,-4.55,-4.55
-10.14,-0.63,0.85,-3.50,-3.43,-3.43
-10.22,-0.39,0.96,-7.00,-7.00,-7.35
-9.70,-0.42,0.89,-9.03,-9.03,-9.17
-9.15,-0.73,0.75,-9.10,-9.10,-9.10
-9.22,-0.93,0.77,-7.49,-7.49,-6.86
-10.04,-0.85,1.09,-3.29,-3.29,-3.29
-10.06,-0.91,0.89,-2.80,-2.80,-2.80
-11.09,-0.78,1.00,-3.15,-3.22,-3.22
-11.74,-0.62,0.97,-4.13,-4.20,-4.20
-11.64,-0.33,0.98,-6.44,-7.00,-7.21
-10.59,-0.25,0.83,-8.68,-8.68,-8.68
-10.23,-0.42,0.57,-7.49,-7.28,-7.28
-10.47,-0.36,0.49,-5.88,-5.74,-5.74
-10.74,-0.14,0.53,-6.51,-6.51,-6.65
-10.44,-0.17,0.63,-7.07,-7.07,-7.28
-9.56,-0.41,0.57,-6.44,-6.44,-6.02
-9.65,-0.70,0.54,-2.24,-2.24,0.14
-10.63,-0.70,0.89,5.46,5.46,5.46
-10.41,-0.89,1.22,11.20,11.20,11.20
-9.83,-1.14,1.56,15.96,17.92,17.92
-8.45,-1.67,1.60,26.95,26.95,28.56
-7.41,-1.95,1.39,42.98,42.98,42.98
-7.17,-2.34,1.33,56.56,56.56,56.56
-8.50,-2.29,1.75,69.09,69.09,69.09
-7.91,-2.60,1.58,80.36,80.36,80.36
-6.21,-3.05,1.16,88.48,91.07,91.07
-4.65,-3.37,0.82,98.28,100.31,100.31
-4.22,-2.92,1.10,104.23,104.23,104.51
-3.11,-2.98,0.57,102.55,102.55,102.55
-2.75,-3.45,-0.13,97.16,97.16,97.16
-4.61,-3.00,-0.42,87.01,87.01,87.01
-8.95,-1.64,-0.07,72.31,72.31,72.31
-12.17,-0.38,0.73,36.54,36.54,36.54
-11.40,-0.51,0.93,11.48,3.64,3.64
-11.35,-1.15,0.80,-17.71,-17.71,-23.59
-10.74,-2.53,0.80,-36.68,-36.68,-36.68
-9.68,-4.12,0.71,-43.68,-43.68,-43.68
-7.52,-5.05,0.89,-32.48,-32.48,-31.22
-7.55,-4.83,1.32,-19.60,-19.60,-19.60
-7.91,-4.59,1.51,-13.16,-11.34,-11.34
-7.91,-4.17,1.31,-6.51,-6.51,-6.51
-7.88,-3.96,1.12,-5.60,-5.60,-5.60
-8.51,-3.76,1.03,-7.35,-8.19,-8.19
-9.05,-3.67,0.92,-11.06,-11.06,-11.06
-9.43,-3.68,0.99,-16.24,-16.24,-16.24
-9.29,-3.75,0.97,-19.60,-19.60,-19.60
-8.88,-3.77,0.90,-21.49,-21.49,-22.05
-8.23,-3.71,0.67,-22.82,-22.82,-22.82
-7.29,-3.73,0.38,-23.24,-23.31,-23.31
-7.15,-3.79,0.38,-23.94,-23.94,-24.22
-7.24,-3.62,0.41,-24.78,-24.78,-24.99
-7.32,-3.46,0.70,-25.83,-25.83,-25.62
-7.45,-3.23,0.94,-26.60,-26.60,-26.60
-7.42,-3.02,1.17,-27.65,-27.65,-27.65
-7.74,-2.91,1.58,-28.77,-28.77,-28.77
-8.87,-2.35,1.83,-30.94,-31.22,-31.99
-8.74,-2.26,2.05,-33.39,-33.60,-33.60
-7.60,-2.57,1.99,-34.16,-34.02,-34.02
-6.47,-2.69,1.69,-33.18,-33.18,-32.97
-6.46,-2.63,1.38,-31.36,-31.36,-30.94
-6.45,-2.61,1.35,-27.44,-27.44,-27.44
-6.88,-2.65,1.48,-25.13,-24.29,-24.29
-7.93,-2.80,1.67,-21.84,-21.84,-20.86
-8.66,-2.64,1.63,-15.61,-15.61,-15.61
-8.58,-2.49,1.36,-9.66,-8.96,-8.96
-9.27,-2.58,1.19,-6.65,-5.67,-5.18
-9.98,-2.62,1.05,-2.31,-1.12,-0.21
-10.25,-2.49,1.13,3.57,3.57,5.88
-9.56,-2.43,1.19,9.66,9.66,10.29
-9.52,-2.14,1.26,13.51,13.79,13.79
-10.04,-1.45,1.01,14.14,14.14,14.07
-9.85,-1.13,0.99,14.21,14.28,14.28
-9.06,-0.97,1.06,15.33,15.33,15.54
-8.26,-0.83,1.23,15.96,16.03,15.96
-8.40,-0.46,1.24,15.82,15.82,15.54
-8.88,0.01,1.47,14.00,14.00,13.86
-9.49,0.01,1.60,11.76,11.76,11.76
-11.48,-0.78,1.83,2.80,2.45,2.45
-11.96,-1.29,1.86,-0.63,-0.91,-0.91
-11.49,-1.59,1.55,-2.03,-2.03,-2.17
-10.49,-1.51,1.00,0.77,0.77,1.12
-11.46,-1.85,0.27,10.15,10.99,10.99
-12.34,-1.79,0.18,13.23,13.37,13.37
-12.51,-1.50,0.00,12.46,12.46,12.18
-12.05,-1.17,-0.22,9.45,9.45,8.82
-11.39,-1.59,-0.59,4.62,4.62,4.27
-11.37,-1.87,-0.69,3.71,3.71,3.92
-11.56,-1.91,-0.69,4.13,4.13,4.13
-11.51,-1.96,-0.64,3.71,3.71,3.71
-11.19,-2.14,-0.66,3.50,3.50,3.50
-11.06,-2.19,-0.63,4.13,4.13,4.13
-10.81,-2.22,-0.58,4.34,4.34,4.34
-10.69,-1.95,-0.30,3.22,2.94,2.94
-10.61,-1.76,-0.13,1.47,1.12,0.42
-10.69,-1.85,-0.04,-1.68,-1.68,-1.68
-10.93,-1.87,-0.10,-2.80,-2.80,-2.80
-10.87,-1.93,-0.29,-3.43,-3.50,-3.50
-11.27,-1.80,-0.40,-5.53,-5.81,-5.81
-12.25,-2.01,-0.45,-9.03,-9.17,-9.17
-12.32,-2.50,-0.45,-8.26,-8.05,-8.05
-12.32,-2.65,-0.37,-5.39,-5.39,-5.18
-12.28,-2.38,-0.29,-4.83,-4.83,-5.11
-12.08,-2.02,-0.20,-6.02,-6.02,-6.23
-11.64,-2.20,-0.30,-8.75,-8.75,-8.82
-11.61,-2.46,-0.43,-8.54,-8.54,-8.47
-12.39,-2.31,-0.30,-8.96,-8.96,-9.24
-12.51,-2.06,-0.23,-11.83,-11.83,-11.83
-12.15,-1.96,-0.21,-17.01,-17.64,-17.64
-11.67,-1.94,-0.23,-20.51,-20.93,-20.93
-11.28,-2.03,-0.24,-24.15,-24.15,-24.36
-11.15,-2.06,-0.16,-25.34,-25.34,-25.97
-11.15,-2.13,0.06,-26.39,-26.39,-26.53
-10.84,-2.41,0.13,-25.41,-25.41,-24.22
-11.05,-2.49,0.45,-21.77,-21.77,-21.21
-11.07,-2.49,0.86,-15.75,-15.75,-15.12
-11.04,-2.33,1.25,-10.01,-10.01,-9.24
-10.35,-2.09,1.31,-4.06,-2.94,-2.94
-9.37,-2.46,0.87,6.79,6.79,7.98
-9.26,-2.40,0.94,14.77,16.10,16.10
-9.79,-2.07,1.06,23.45,23.45,25.41
-10.16,-1.49,1.33,26.74,26.74,26.88
-9.71,-1.14,1.12,26.18,26.18,26.18
-7.91,-1.34,0.52,26.74,26.74,26.88
-7.12,-1.45,0.37,28.91,28.91,29.19
-8.74,-0.95,0.56,30.38,30.24,30.24
-9.55,-0.31,0.89,27.02,27.02,26.60
-9.22,-0.18,1.07,24.57,24.22,24.08
-7.87,-0.32,0.83,24.64,24.64,24.64
-6.98,-0.84,0.60,27.72,28.56,30.24
-7.20,-1.36,0.51,37.59,37.59,38.92
-6.87,-1.85,0.45,46.20,47.18,47.18
-6.40,-2.60,0.50,53.27,54.25,54.25
-6.05,-3.11,0.61,64.82,64.82,66.22
-5.66,-3.87,0.64,75.67,75.67,76.93
-5.04,-4.02,0.99,85.33,85.33,86.31
-4.24,-3.80,0.97,91.42,91.42,91.77
-3.36,-2.98,-0.06,92.75,92.75,92.75
-5.07,-1.55,-1.13,84.56,84.56,84.56
-7.88,-0.31,-1.41,65.59,65.59,59.71
-11.45,-0.73,-0.64,40.46,40.46,40.46
-13.70,-1.28,0.71,9.17,9.17,9.17
-12.58,-1.49,0.96,-11.90,-11.90,-11.90
-11.36,-1.85,0.69,-27.79,-27.79,-29.54
-9.79,-2.58,0.42,-39.62,-39.62,-39.62
-7.79,-3.89,0.51,-39.20,-39.20,-39.20
-6.63,-4.74,0.70,-32.76,-32.76,-30.52
-6.33,-5.22,0.88,-22.19,-22.19,-22.19
-6.96,-5.00,0.79,-13.16,-13.16,-12.32
-7.77,-4.79,0.69,-9.24,-9.24,-9.24
-8.49,-4.49,0.50,-8.12,-8.12,-8.12
-9.48,-4.09,0.48,-11.41,-11.41,-11.41
-10.28,-3.57,0.46,-15.96,-17.78,-17.78
-9.72,-3.55,0.31,-24.01,-24.01,-24.01
-9.09,-3.58,-0.08,-30.31,-30.87,-30.87
-8.42,-3.76,-0.22,-33.88,-33.88,-33.88
-8.35,-3.92,-0.24,-34.93,-34.93,-34.93
-8.08,-3.95,-0.28,-34.37,-34.37,-34.16
-8.27,-4.04,-0.31,-31.50,-31.50,-31.50
-8.42,-4.08,-0.34,-28.98,-28.98,-28.98
-8.96,-3.77,-0.29,-26.53,-26.53,-26.32
-9.34,-3.46,-0.16,-25.76,-25.76,-25.76
-8.91,-3.31,-0.16,-26.04,-26.32,-26.32
-9.19,-3.08,-0.09,-27.79,-27.79,-27.79
-9.38,-3.11,-0.04,-28.91,-28.91,-28.91
-9.19,-3.33,0.10,-28.42,-28.28,-28.28
-8.76,-3.17,0.18,-26.95,-26.95,-26.88
-8.72,-2.99,0.48,-26.46,-26.46,-26.46
-8.70,-2.69,0.71,-26.18,-26.18,-26.11
-8.13,-2.60,0.90,-25.62,-25.62,-25.48
-8.03,-2.15,0.93,-25.97,-25.97,-25.97
-8.37,-1.88,1.00,-27.23,-27.23,-27.23
-8.43,-1.99,1.10,-27.30,-27.30,-27.30
-8.22,-2.38,1.13,-25.41,-24.64,-24.64
-8.37,-2.54,1.11,-21.63,-21.63,-20.93
-8.73,-2.26,0.78,-18.55,-18.55,-18.55
-9.22,-2.03,0.83,-16.52,-16.38,-16.38
-9.36,-2.12,0.87,-14.91,-14.91,-14.91
-9.42,-1.95,0.57,-12.39,-12.39,-12.39
-8.93,-1.90,0.40,-11.06,-11.06,-11.06
-9.49,-1.51,0.45,-5.25,-4.83,-4.83
-8.15,-1.96,1.08,6.16,6.16,6.16
-8.38,-1.64,1.31,9.73,10.50,10.99
-8.65,-1.12,1.60,15.61,15.61,15.75
-9.05,-0.30,1.50,15.47,15.47,15.47
-9.15,0.14,1.44,13.23,12.81,12.81
-9.04,0.17,1.38,9.17,9.17,8.05
-10.66,0.07,1.34,2.87,2.73,2.73
-10.88,-0.08,1.33,2.80,2.94,2.94
-10.78,-0.20,1.31,3.78,3.85,3.85
-10.74,-0.37,1.14,4.69,4.69,4.83
-11.42,-0.59,0.83,7.14,7.14,7.70
-12.29,-0.74,0.72,10.36,10.36,10.36
-12.55,-0.73,0.80,13.65,14.00,14.00
-12.38,-0.67,0.87,16.80,17.08,17.08
-12.51,-0.75,1.06,19.04,19.39,19.39
-12.48,-0.97,1.17,21.49,21.84,22.68
-11.86,-1.32,1.11,26.11,26.11,26.60
-11.81,-1.44,1.18,31.15,31.15,31.15
-11.82,-1.47,1.18,33.53,33.53,33.53
-11.67,-1.47,1.00,33.81,33.74,33.74
-11.30,-1.22,0.80,31.43,30.94,30.94
-10.87,-1.03,0.59,26.32,24.71,23.94
-10.52,-0.97,0.48,20.02,20.02,17.64
-10.13,-0.96,0.34,12.39,11.62,11.62
-9.89,-1.05,0.27,3.92,3.92,3.15
-9.68,-1.16,0.24,-0.35,-1.54,-2.24
-9.68,-1.26,0.27,-5.67,-5.67,-6.23
-9.66,-1.75,0.31,-11.90,-11.90,-11.90
-9.55,-1.94,0.32,-10.71,-10.71,-10.71
-9.51,-2.03,0.34,-9.24,-9.24,-9.24
-9.51,-2.04,0.40,-6.79,-6.79,-6.44
-9.59,-2.18,0.45,-3.85,-3.85,-3.64
-9.97,-2.15,0.56,-1.89,-1.89,-1.61
-10.06,-2.11,0.56,-0.63,-0.63,-0.63
-10.05,-2.01,0.59,0.35,0.35,0.35
-9.82,-1.98,0.52,1.19,1.40,1.40
-9.74,-1.82,0.54,2.03,2.03,2.03
-9.49,-1.75,0.43,2.03,2.03,2.03
-9.38,-1.78,0.33,1.96,1.82,1.82
-9.42,-1.79,0.27,1.96,1.89,1.89
-9.55,-1.72,0.27,1.75,1.40,1.40
-9.65,-1.70,0.22,0.70,0.42,0.42
-9.86,-1.63,0.24,-0.77,-0.77,-0.77
-9.71,-1.69,0.14,-2.59,-2.59,-2.59
-9.57,-1.79,0.11,-2.94,-2.94,-2.94
-9.47,-1.91,0.10,-2.45,-2.38,-2.38
-9.56,-2.07,0.09,-1.26,-0.84,-0.56
-9.78,-2.07,0.12,0.56,0.56,0.56
-9.72,-2.06,0.11,1.47,1.47,1.61
-9.66,-2.03,0.11,2.24,2.52,2.66
-9.64,-2.01,0.07,3.78,3.78,3.78
-9.74,-1.94,0.10,5.04,5.04,5.04
-9.80,-1.82,0.11,5.25,5.11,5.11
-9.81,-1.72,0.11,4.62,4.06,4.06
-9.69,-1.65,0.12,3.29,3.15,2.80
-9.63,-1.65,0.08,2.03,1.82,1.82
-9.70,-1.64,0.06,0.42,-0.14,-0.28
-9.72,-1.69,0.08,-1.61,-1.61,-1.61
-9.70,-1.74,0.10,-2.80,-2.87,-2.87
-9.57,-1.79,0.05,-3.22,-3.15,-3.15
-9.53,-1.78,0.06,-3.36,-3.36,-3.36
-9.52,-1.78,0.05,-3.50,-3.50,-3.50
-9.56,-1.80,0.06,-3.57,-3.43,-3.43
-9.64,-1.80,0.06,-3.43,-3.08,-3.08
-9.70,-1.85,0.06,-2.87,-2.87,-2.80
-9.82,-1.86,0.08,-2.31,-2.17,-2.17
-9.86,-1.94,0.03,-1.61,-1.47,-1.47
-9.95,-1.94,0.07,-0.56,-0.56,-0.56
-9.80,-1.97,0.00,0.07,0.35,0.35
-9.79,-1.96,0.00,1.12,1.12,1.26
-9.63,-1.96,-0.04,1.75,1.75,1.82
-9.60,-1.98,-0.08,2.73,2.73,2.94
-9.62,-1.95,-0.08,3.43,3.43,3.43
-9.79,-1.92,-0.07,3.36,3.36,3.36
-9.82,-1.84,-0.09,2.59,2.59,2.59
-9.80,-1.77,-0.11,1.47,1.05,1.05
-9.63,-1.83,-0.15,0.00,-0.14,-0.14
-9.61,-1.90,-0.14,-0.56,-0.56,-0.56
-9.59,-1.93,-0.13,-0.77,-0.77,-0.77
-9.57,-1.90,-0.09,-1.05,-1.05,-1.05
-9.52,-1.88,-0.03,-1.26,-1.33,-1.33
-9.56,-1.87,-0.02,-1.33,-1.47,-1.47
-9.66,-1.92,-0.01,-1.61,-1.61,-1.61
-9.83,-1.99,0.01,-1.12,-1.12,-1.12
-9.89,-1.96,0.06,-0.77,-0.70,-0.70
-9.79,-1.91,0.05,-0.70,-0.70,-0.56
-9.63,-1.96,-0.02,-0.56,-0.21,-0.14
-9.52,-2.00,-0.07,0.49,0.49,0.49
-9.64,-2.00,-0.02,1.47,1.54,1.54
-9.68,-1.92,-0.00,1.54,1.47,1.47
-9.72,-1.88,-0.03,1.05,1.19,1.19
-9.68,-1.92,-0.09,0.84,0.84,0.77
-9.69,-1.99,-0.09,0.77,0.77,0.77
-9.68,-2.05,-0.12,1.05,1.05,1.05
-9.69,-2.06,-0.12,1.19,1.19,1.19
-9.58,-2.05,-0.13,1.40,1.40,1.47
-9.50,-2.04,-0.14,1.89,1.89,2.03
-9.56,-2.01,-0.14,2.31,2.31,2.24
-9.69,-2.01,-0.08,2.45,2.45,2.45
-9.64,-1.96,-0.11,2.45,2.45,2.38
-9.66,-1.94,-0.12,2.03,2.03,1.89
-9.59,-1.95,-0.13,1.40,1.40,1.40
-9.61,-2.00,-0.12,0.77,0.84,0.84
-9.57,-2.03,-0.11,0.63,0.70,0.70
-9.55,-2.06,-0.10,0.42,0.42,0.49
-9.60,-2.11,-0.09,0.49,0.49,0.42
-9.74,-2.12,-0.02,0.35,0.35,0.35
-9.76,-2.12,-0.06,0.56,0.56,0.56
-9.69,-2.11,-0.06,0.91,0.91,0.98
-9.58,-2.08,-0.06,1.12,1.12,1.12
-9.59,-2.02,-0.09,1.19,1.19,1.19
-9.62,-1.99,-0.10,0.63,0.63,0.63
-9.74,-1.93,-0.08,-0.42,-0.42,-0.42
-9.73,-1.88,-0.11,-1.68,-1.68,-1.68
-9.71,-1.94,-0.12,-3.50,-3.57,-3.57
-9.60,-2.08,-0.14,-3.92,-3.85,-3.85
-9.54,-2.16,-0.14,-3.57,-3.57,-3.50
-9.55,-2.24,-0.11,-3.01,-2.80,-2.66
-9.63,-2.22,-0.11,-2.03,-2.03,-1.96
-9.59,-2.21,-0.11,-0.98,-0.98,-0.98
-9.52,-2.15,-0.13,-0.63,-0.49,-0.49
-9.47,-2.17,-0.16,-0.07,-0.07,0.00
-9.60,-2.16,-0.15,0.63,0.63,0.63
-9.68,-2.17,-0.14,0.91,0.84,0.84
-9.70,-2.13,-0.14,1.12,1.12,1.12
-9.58,-2.13,-0.18,0.84,0.77,0.77
-9.50,-2.11,-0.18,0.70,0.77,0.77
-9.45,-2.10,-0.17,0.70,0.70,0.70
-9.41,-2.07,-0.18,0.56,0.56,0.35
-9.44,-2.03,-0.17,-0.28,-0.28,-0.56
-9.46,-2.01,-0.12,-0.98,-1.26,-1.19
-9.54,-2.00,-0.14,-2.03,-2.03,-2.03
-9.59,-2.01,-0.13,-2.73,-2.73,-2.73
-9.53,-2.02,-0.13,-3.29,-3.36,-3.57
-9.54,-2.05,-0.15,-3.85,-3.85,-3.78
-9.54,-2.09,-0.13,-3.64,-3.64,-3.64
-9.73,-2.22,-0.08,-1.47,-1.47,-1.47
-9.78,-2.24,-0.07,-0.56,-0.56,-0.56
-9.80,-2.26,-0.12,0.35,0.42,0.42
-9.78,-2.27,-0.15,1.12,1.12,1.12