aX,aY,aZ,gX,gY,gZ
-9.73,-2.25,-0.15,1.68,1.68,1.89
-9.69,-2.28,-0.18,2.03,2.17,2.24
-9.74,-2.33,-0.22,2.38,2.38,2.52
-9.82,-2.34,-0.24,2.45,2.45,2.38
-9.78,-2.34,-0.25,2.24,2.24,2.31
-9.63,-2.27,-0.26,1.89,1.89,1.61
-9.49,-2.21,-0.27,0.91,0.91,0.91
-9.39,-2.18,-0.25,-0.21,-0.21,-0.21
-9.42,-2.12,-0.24,-1.26,-1.26,-1.26
-9.40,-2.06,-0.27,-2.10,-2.31,-2.31
-9.43,-1.98,-0.28,-3.92,-3.92,-4.13
-9.39,-1.99,-0.26,-5.11,-5.11,-5.53
-9.40,-1.96,-0.20,-6.02,-6.02,-6.51
-9.44,-1.98,-0.17,-6.86,-6.86,-7.14
-9.50,-1.95,-0.13,-7.14,-7.14,-7.14
-9.57,-2.02,-0.13,-7.14,-7.14,-7.14
-9.93,-2.17,-0.05,-4.90,-4.76,-4.76
-10.02,-2.29,-0.04,-3.15,-2.87,-2.87
-10.21,-2.38,-0.02,0.07,0.07,0.42
-10.27,-2.40,-0.04,1.61,2.10,2.31
-10.13,-2.37,-0.07,3.29,3.29,3.85
-9.69,-2.30,-0.19,5.67,5.67,5.88
-9.50,-2.24,-0.22,6.09,6.09,6.09
-9.39,-2.17,-0.23,5.53,5.53,5.53
-9.35,-2.14,-0.24,4.90,4.55,4.55
-9.48,-2.03,-0.24,3.43,3.01,3.01
-9.53,-1.94,-0.25,0.98,0.70,0.70
-9.72,-2.16,-0.18,-4.20,-4.20,-4.20
-9.67,-2.21,-0.15,-4.62,-4.55,-4.55
-9.56,-2.24,-0.17,-4.48,-4.34,-4.34
-9.58,-2.29,-0.18,-3.71,-3.71,-3.71
-9.65,-2.30,-0.14,-2.52,-2.52,-2.52
-9.67,-2.34,-0.16,-1.68,-1.68,-1.68
-9.71,-2.32,-0.13,-0.98,-0.98,-0.98
-9.69,-2.34,-0.18,-0.28,-0.28,-0.28
-9.60,-2.28,-0.20,0.07,0.07,0.07
-9.54,-2.28,-0.23,0.07,0.07,0.07
-9.45,-2.27,-0.26,0.21,0.21,0.21
-9.42,-2.29,-0.25,0.70,0.84,0.84
-9.54,-2.37,-0.24,1.68,1.68,1.68
-9.68,-2.36,-0.23,2.03,1.89,1.89
-9.70,-2.27,-0.24,1.75,1.75,1.68
-9.62,-2.20,-0.25,1.54,1.26,1.26
-9.53,-2.17,-0.27,0.91,0.91,0.70
-9.58,-2.12,-0.21,0.35,0.35,0.35
-9.57,-2.21,-0.22,-0.14,-0.14,-0.14
-9.69,-2.19,-0.19,-0.49,-0.49,-0.49
-9.69,-2.19,-0.21,-0.91,-0.91,-0.91
-9.63,-2.17,-0.21,-1.82,-1.82,-1.82
-9.53,-2.21,-0.24,-2.17,-2.17,-2.17
-9.51,-2.23,-0.23,-1.96,-1.96,-1.96
-9.50,-2.24,-0.23,-1.89,-1.82,-1.82
-9.51,-2.29,-0.22,-1.61,-1.61,-1.61
-9.50,-2.26,-0.23,-1.33,-1.33,-1.19
-9.50,-2.23,-0.21,-0.98,-0.98,-0.98
-9.48,-2.24,-0.22,-1.05,-1.05,-1.05
-9.58,-2.30,-0.23,-0.56,-0.56,-0.56
-9.59,-2.29,-0.23,-0.35,-0.35,-0.35
-9.54,-2.34,-0.25,-0.42,-0.42,-0.42
-9.67,-2.37,-0.26,0.07,0.14,0.14
-9.67,-2.36,-0.25,0.56,0.56,0.56
-9.58,-2.34,-0.24,0.49,0.49,0.49
-9.51,-2.35,-0.26,0.98,0.98,0.98
-9.58,-2.31,-0.26,1.33,1.33,1.47
-9.60,-2.29,-0.25,1.47,1.47,1.26
-9.67,-2.24,-0.26,0.77,0.77,0.77
-9.58,-2.25,-0.29,0.14,0.07,0.07
-9.47,-2.26,-0.32,-0.42,-0.35,-0.35
-9.54,-2.24,-0.31,-0.56,-0.56,-0.56
-9.58,-2.22,-0.29,-0.91,-0.91,-0.91
-9.60,-2.24,-0.28,-1.12,-1.12,-1.12
-9.58,-2.26,-0.28,-1.05,-1.05,-1.26
-9.61,-2.30,-0.29,-0.49,-0.49,-0.49
-9.69,-2.31,-0.27,0.07,0.07,0.07
-9.73,-2.34,-0.26,0.49,0.49,0.49
-9.65,-2.23,-0.27,2.10,2.03,2.03
-9.57,-2.16,-0.31,1.96,1.96,1.96
-9.51,-2.08,-0.31,1.05,0.84,0.84
-9.52,-2.07,-0.35,0.35,0.07,0.07
-9.59,-2.06,-0.34,-0.70,-0.77,-0.77
-9.63,-2.06,-0.38,-2.03,-2.31,-2.31
-9.62,-2.08,-0.40,-3.01,-3.01,-3.01
-9.60,-2.15,-0.40,-3.92,-3.92,-3.92
-9.52,-2.20,-0.42,-3.92,-3.92,-3.92
-9.49,-2.27,-0.44,-3.64,-3.64,-3.64
-9.72,-2.33,-0.39,-1.68,-1.68,-1.68
-9.68,-2.30,-0.35,-0.77,-0.77,-0.77
-9.69,-2.27,-0.37,-0.42,-0.42,-0.42
-9.62,-2.32,-0.36,-0.42,-0.42,-0.42
-9.56,-2.34,-0.36,0.07,0.07,0.07
-9.52,-2.35,-0.37,0.42,0.42,0.42
-9.52,-2.33,-0.35,0.35,0.35,0.35
-9.49,-2.31,-0.34,-0.14,-0.14,-0.14
-9.45,-2.34,-0.30,-0.07,-0.07,-0.07
-9.42,-2.36,-0.31,-0.07,0.00,0.00
-9.43,-2.34,-0.27,0.00,-0.07,-0.07
-9.46,-2.33,-0.25,-0.07,-0.07,-0.07
-9.47,-2.33,-0.25,-0.14,-0.14,-0.14
-9.49,-2.29,-0.23,-0.56,-0.56,-0.56
-9.52,-2.25,-0.23,-0.98,-0.98,-0.98
-9.49,-2.27,-0.24,-1.68,-1.68,-1.68
-9.41,-2.28,-0.26,-1.96,-1.96,-1.96
-9.42,-2.29,-0.28,-1.96,-1.96,-1.96
-9.49,-2.32,-0.29,-1.96,-1.96,-1.96
-9.61,-2.32,-0.28,-2.10,-2.10,-2.10
-9.68,-2.34,-0.27,-2.17,-2.17,-2.17
-9.70,-2.32,-0.25,-2.31,-2.31,-2.31
-9.73,-2.30,-0.26,-2.17,-2.17,-2.03
-9.72,-2.36,-0.27,-1.54,-1.54,-1.54
-9.73,-2.43,-0.29,-0.56,-0.56,-0.56
-9.72,-2.44,-0.32,0.49,0.49,0.49
-9.78,-2.43,-0.33,1.33,1.33,1.33
-9.77,-2.43,-0.35,1.54,1.54,1.54
-9.76,-2.38,-0.38,2.03,2.03,2.03
-9.69,-2.31,-0.43,1.68,1.68,1.68
-9.55,-2.28,-0.46,1.26,1.12,1.12
-9.52,-2.25,-0.50,0.49,0.42,0.42
-9.49,-2.17,-0.49,-0.56,-0.77,-0.77
-9.42,-2.08,-0.45,-2.59,-2.59,-2.66
-9.38,-2.01,-0.46,-3.92,-3.92,-3.92
-9.51,-2.01,-0.43,-5.46,-5.53,-5.53
-9.67,-2.00,-0.37,-6.30,-6.23,-6.23
-9.69,-2.01,-0.25,-7.63,-7.63,-7.63
-9.67,-2.07,-0.25,-7.98,-7.98,-7.98
-9.68,-2.14,-0.22,-7.63,-7.63,-7.63
-9.69,-2.16,-0.15,-6.79,-6.79,-6.72
-9.77,-2.18,-0.06,-6.23,-6.23,-6.23
-9.85,-2.19,-0.04,-6.16,-6.23,-6.23
-9.86,-2.21,-0.04,-5.88,-5.88,-5.88
-9.83,-2.24,-0.03,-5.46,-5.46,-5.46
-9.71,-2.29,-0.09,-4.83,-4.83,-4.83
-9.71,-2.25,-0.10,-3.85,-3.85,-3.85
-9.75,-2.16,-0.08,-3.22,-3.22,-3.22
-9.67,-2.14,-0.11,-2.80,-2.59,-2.59
-9.61,-2.10,-0.11,-2.03,-1.89,-1.75
-9.60,-1.98,-0.08,-1.47,-1.47,-1.40
-9.53,-1.84,-0.06,-1.75,-1.75,-1.75
-9.46,-1.78,-0.11,-3.08,-3.08,-3.08
-9.46,-1.81,-0.19,-3.85,-4.13,-4.13
-9.67,-1.87,-0.20,-4.97,-4.97,-4.97
-9.66,-1.94,-0.17,-6.02,-6.02,-6.02
-9.51,-2.01,-0.18,-5.88,-5.88,-5.74
-9.42,-2.10,-0.20,-4.41,-4.41,-4.20
-9.45,-2.05,-0.18,-2.80,-2.80,-2.73
-9.73,-1.93,-0.16,-1.75,-1.75,-1.75
-10.17,-1.75,-0.16,-2.31,-2.31,-2.52
-10.67,-1.65,-0.15,-4.48,-4.48,-4.48
-11.24,-1.62,-0.18,-7.07,-7.07,-7.07
-11.91,-1.60,-0.20,-15.40,-15.40,-15.40
-12.31,-1.53,-0.11,-17.64,-17.64,-17.64
-12.63,-1.51,-0.06,-19.18,-19.32,-19.60
-12.54,-1.49,-0.16,-19.74,-19.60,-19.60
-12.45,-1.18,-0.19,-19.81,-19.95,-20.02
-12.38,-1.03,-0.21,-20.30,-20.30,-20.37
-13.07,-0.83,-0.03,-20.16,-20.16,-20.16
-14.68,-0.56,0.37,-18.76,-18.76,-18.76
-17.51,-0.25,0.67,-16.73,-16.73,-16.73
-17.65,0.20,0.70,-12.32,-11.69,-11.69
-14.88,0.42,0.47,-7.84,-7.84,-7.84
-12.23,0.78,0.49,-6.51,-6.44,-6.44
-11.67,1.47,1.02,-7.14,-7.14,-7.56
-12.44,2.23,1.52,-9.52,-10.36,-10.36
-12.06,2.11,1.90,-13.51,-13.86,-13.86
-10.83,1.02,1.77,-14.28,-14.28,-14.28
-9.24,0.03,1.28,-7.63,-6.65,-6.65
-8.11,-0.13,1.45,0.35,1.26,1.26
-8.09,-0.02,1.87,7.70,8.61,8.61
-7.82,0.00,2.11,14.84,14.84,15.96
-2.82,-2.04,0.76,36.61,36.61,42.21
0.21,-3.82,-0.38,55.16,57.61,57.61
1.34,-4.87,-1.07,79.24,79.24,81.48
2.01,-5.47,-1.60,91.63,94.85,96.11
2.07,-5.38,-1.92,100.10,100.10,100.31
-0.05,-4.30,-1.90,96.46,96.46,95.13
-5.61,-2.46,-1.13,78.89,78.89,75.74
-12.79,-0.53,0.87,37.80,37.80,33.18
-12.25,-1.12,1.15,2.73,2.73,-1.68
-10.23,-1.81,0.92,-31.15,-31.15,-35.00
-7.64,-2.68,0.57,-54.18,-54.18,-54.18
-5.80,-3.73,0.00,-69.79,-70.70,-70.70
-4.16,-4.66,-0.28,-72.80,-72.66,-72.66
-3.09,-5.49,-0.26,-67.41,-67.41,-66.64
-3.52,-5.78,0.22,-61.60,-59.36,-58.24
-4.34,-5.57,1.04,-52.22,-52.22,-48.37
-3.68,-5.08,1.17,-42.28,-42.28,-41.16
-3.05,-4.35,1.59,-33.46,-33.46,-33.11
-4.50,-3.54,2.44,-31.78,-31.78,-31.64
-6.17,-2.65,2.70,-31.78,-31.78,-31.78
-5.80,-2.42,2.43,-30.87,-30.87,-30.52
-4.87,-2.92,1.89,-26.88,-26.88,-26.88
-5.07,-3.61,1.78,-23.31,-21.84,-21.84
-6.44,-3.28,1.52,-17.36,-17.36,-16.59
-7.03,-2.44,1.47,-11.62,-11.62,-11.62
-7.50,-1.94,1.87,-8.40,-8.40,-8.40
-10.18,-0.58,1.77,-8.89,-9.52,-9.52
-11.64,1.12,1.73,-11.69,-11.69,-11.97
-11.97,0.54,1.73,-13.51,-13.72,-13.72
-14.84,0.53,1.34,-12.67,-12.18,-12.18
-15.55,0.30,0.75,-8.12,-8.12,-7.42
-16.82,-0.26,0.77,-1.19,-0.42,-0.42
-24.45,-2.03,-0.19,14.35,14.35,14.28
-26.50,-1.92,-0.52,8.61,8.61,8.61
-25.12,-2.01,-0.87,1.33,0.00,0.00
-22.25,-1.94,-1.45,-13.16,-13.16,-14.49
-18.97,-2.23,-1.47,-20.79,-20.79,-21.42
-17.53,-2.75,-1.14,-22.05,-21.21,-20.51
-16.88,-3.78,-0.20,-12.18,-12.18,-10.50
-15.98,-4.50,0.47,-0.14,2.24,2.24
-14.58,-5.35,1.40,25.62,25.62,25.62
-12.65,-5.63,2.19,49.00,52.22,52.22
-11.37,-5.71,1.98,77.70,79.80,79.80
-10.16,-4.90,1.39,89.04,89.60,89.60
-8.95,-3.56,1.60,89.60,89.32,89.32
-8.16,-2.12,2.07,86.87,84.77,84.77
-7.02,-0.76,2.62,81.13,80.43,78.75
-5.45,-0.45,2.69,73.29,72.59,72.59
-3.88,-0.63,1.86,69.65,69.37,69.37
-2.44,-0.47,1.25,69.23,69.51,69.79
-1.79,0.42,0.76,71.61,89.53,72.03
-2.13,1.57,0.65,73.92,74.90,75.53
-2.15,1.78,0.58,80.22,80.22,80.22
-1.11,1.24,0.07,86.10,86.66,86.66
-0.10,0.45,-0.57,89.04,89.32,89.32
0.79,0.03,-1.26,89.88,89.88,90.02
1.53,0.28,-1.38,89.32,89.32,88.55
0.25,1.71,-1.49,86.24,86.24,85.40
-4.76,6.51,-1.59,69.72,69.72,66.78
-12.07,9.01,-1.76,39.48,39.48,35.07
-9.87,7.64,-1.56,13.09,4.55,0.42
-6.26,4.80,-0.79,-18.97,-18.97,-25.83
-5.52,2.22,-0.05,-46.41,-46.41,-46.41
-6.44,1.57,-0.22,-53.97,-55.37,-55.37
-6.96,1.74,-1.32,-58.31,-58.31,-59.36
-5.90,1.29,-1.25,-63.42,-63.42,-63.42
-6.39,1.56,0.14,-75.11,-75.11,-75.11
-8.93,2.13,0.67,-82.53,-83.65,-83.65
-7.24,1.35,0.32,-88.20,-88.27,-88.27
-4.43,0.04,-0.16,-86.87,-86.87,-86.31
-4.24,0.21,0.46,-79.80,-79.80,-78.61
-6.45,1.70,1.43,-70.35,-70.35,-68.95
-7.19,1.89,1.41,-61.18,-61.18,-59.99
-5.67,0.87,1.00,-50.05,-50.05,-48.37
-7.20,1.43,0.44,-31.43,-31.43,-31.43
-9.00,2.31,1.39,-12.18,-10.22,-10.22
-9.53,2.44,2.02,0.35,0.35,0.35
-9.55,2.78,2.01,12.39,12.39,12.39
-10.31,3.95,1.97,18.20,19.95,19.95
-10.99,5.48,2.66,25.41,25.41,25.41
-10.33,5.94,3.25,29.75,29.75,29.75
-9.29,6.24,2.95,30.59,30.59,30.66
-8.09,6.45,1.79,30.45,30.45,30.45
-8.06,6.32,1.23,31.71,31.71,31.71
-9.39,5.86,1.67,34.37,34.37,34.37
-10.36,5.80,1.90,33.67,33.67,33.67
-11.97,7.07,2.08,29.05,29.05,29.05
-12.71,7.63,1.98,20.58,19.25,19.25
-12.09,6.70,1.25,7.84,6.72,6.72
-13.13,6.39,1.09,-0.77,-1.61,-1.61
-14.86,6.34,1.15,-5.67,-6.16,-6.16
-14.91,5.82,1.08,-9.87,-9.87,-11.41
-13.84,4.79,0.84,-13.65,-13.65,-13.93
-12.83,3.61,0.45,-14.14,-14.14,-14.00
-12.17,3.09,0.23,-11.27,-11.27,-10.71
-11.37,2.81,0.12,-7.63,-7.63,-7.28
-10.44,2.39,0.02,-5.53,-4.76,-4.41
-9.87,2.03,-0.13,-2.38,-2.38,-0.91
-9.83,1.85,-0.11,1.61,1.61,3.29
-9.52,1.81,-0.02,6.23,6.23,6.23
-9.18,2.01,0.15,8.26,8.26,8.26
-8.83,2.23,0.45,9.73,9.73,9.73
-8.56,2.34,0.63,10.99,11.13,11.13
-8.60,2.64,0.92,11.97,11.97,11.97
-8.80,3.05,1.23,10.71,10.71,10.43
-9.03,3.30,1.31,8.12,7.70,7.70
-9.27,3.42,1.37,3.92,3.92,3.92
-9.63,3.34,1.52,-0.63,-1.19,-1.19
-10.28,3.30,1.62,-4.06,-4.48,-4.48
-10.64,3.13,1.68,-9.38,-9.38,-9.94
-11.02,3.00,1.71,-12.67,-13.58,-14.00
-11.42,2.81,1.81,-16.24,-16.24,-16.24
-11.46,2.34,1.96,-17.15,-17.15,-17.15
-11.68,2.17,2.05,-16.38,-16.38,-16.38
-12.21,2.42,2.06,-16.45,-16.45,-16.45
-12.50,2.47,2.21,-16.59,-16.59,-16.59
-12.31,2.30,2.29,-16.38,-16.38,-16.38
-12.25,2.22,2.29,-16.31,-16.31,-16.31
-12.37,2.28,2.29,-16.24,-16.24,-16.24
-12.81,2.49,2.39,-16.52,-16.73,-16.73
-12.91,2.43,2.41,-17.01,-17.08,-17.08
-12.56,2.42,2.27,-17.08,-16.80,-16.80
-11.45,2.22,2.02,-15.68,-15.33,-15.33
-10.16,2.12,1.79,-13.93,-13.93,-13.79
-9.37,2.29,1.60,-13.86,-13.86,-13.93
-9.31,2.67,1.56,-15.54,-15.54,-15.54
-9.20,2.90,1.68,-17.99,-18.27,-18.90
-8.65,2.66,1.95,-19.95,-20.02,-20.16
-8.35,2.55,2.29,-19.32,-19.32,-19.11
-8.51,2.67,2.55,-16.87,-16.87,-16.10
-8.39,2.53,2.45,-11.55,-11.55,-11.55
-7.81,2.37,2.17,-5.32,-4.62,-4.62
-7.36,2.29,2.10,1.40,2.45,2.45
-7.68,2.76,2.10,11.48,12.32,12.32
-7.79,3.07,2.04,17.36,17.78,17.78
-7.76,3.50,1.83,19.81,20.02,20.02
-7.81,4.04,1.65,19.74,19.67,19.67
-7.78,4.38,1.61,17.78,17.78,17.78
-8.39,4.87,1.83,14.21,13.79,13.79
-9.04,5.51,1.96,10.99,8.96,8.96
-9.09,6.19,2.20,4.55,3.92,3.92
-8.69,6.53,1.92,-2.59,-2.59,-3.22
-7.35,6.44,1.60,-6.44,-6.44,-6.44
-6.50,6.29,1.53,-9.03,-9.03,-9.10
-6.48,6.47,1.89,-9.52,-9.52,-9.52
-7.29,7.43,2.93,-10.50,-10.50,-10.50
-7.78,7.75,3.20,-11.97,-11.97,-11.97
-6.37,7.12,3.26,-12.67,-12.53,-12.53
-4.74,6.13,3.11,-10.01,-9.24,-9.24
-3.17,5.01,2.61,0.77,0.77,0.77
-2.25,4.05,2.36,17.36,17.36,17.36
-1.52,3.21,2.23,29.05,33.18,33.18
-1.46,2.77,2.14,45.29,45.29,48.86
-2.12,2.89,1.49,58.24,58.24,58.24
-2.41,3.07,0.44,65.59,65.59,65.59
-3.23,3.58,0.39,62.16,61.18,61.18
-4.99,4.54,0.37,51.66,50.19,50.19
-7.47,5.86,0.19,40.04,32.69,32.69
-8.96,6.66,0.10,17.64,14.21,14.21
-9.40,6.49,-0.11,-19.53,-23.10,-23.10
-8.48,5.65,-0.39,-45.64,-48.16,-48.16
-6.01,3.54,-0.77,-60.97,-60.97,-62.23
-3.68,2.27,-1.34,-67.27,-67.27,-67.27
-3.05,2.02,-1.36,-69.30,-70.21,-70.21
-4.10,2.40,-1.02,-73.64,-73.64,-75.39
-4.19,2.58,-0.11,-80.92,-80.92,-80.92
-4.13,2.41,0.94,-90.86,-90.86,-90.86
-4.27,2.52,1.24,-95.90,-95.90,-95.90
-5.67,3.08,1.40,-97.72,-97.79,-97.79
-6.68,3.21,1.61,-95.69,-95.69,-94.29
-4.99,1.79,1.67,-85.89,-85.89,-85.89
-6.01,1.25,2.54,-70.28,-68.32,-68.32
-8.78,1.48,3.38,-58.03,-51.17,-51.17
-9.23,1.36,3.55,-39.20,-36.68,-31.64
-7.91,0.84,3.08,-14.14,-14.14,-11.62
-8.22,0.99,2.52,9.59,9.59,9.59
-10.04,1.72,3.11,22.68,26.39,26.39
-12.28,2.82,4.21,35.63,38.15,38.15
-12.45,3.11,4.58,43.26,43.26,43.68
-13.46,3.64,4.24,44.59,44.59,44.59
-12.33,3.22,3.42,46.83,48.37,48.37
-10.93,2.85,2.23,56.28,56.28,56.28
-10.29,3.01,1.34,61.18,61.18,61.18
-10.44,3.22,0.37,61.04,60.69,60.69
-11.84,3.90,-0.20,52.29,52.29,50.82
-13.03,3.99,-0.28,37.80,35.56,35.56
-13.49,3.35,-0.96,15.26,15.26,13.02
-14.65,2.81,-1.24,-1.68,-1.68,-1.68
-15.69,2.42,-1.46,-17.15,-18.62,-18.62
-15.26,1.87,-2.08,-27.30,-28.07,-28.07
-14.83,1.39,-2.36,-31.15,-32.06,-32.06
-14.73,1.02,-2.39,-31.99,-31.01,-31.01
-14.74,0.49,-2.09,-28.63,-27.37,-26.74
-14.78,-0.02,-1.39,-23.38,-23.38,-21.35
-13.49,-0.30,-0.67,-18.20,-0.28,-16.45
-14.14,-0.48,-0.43,-13.79,-13.79,-12.39
-12.94,-0.65,-0.46,-9.31,-9.31,-8.75
-12.43,-0.85,-0.34,-5.95,-5.95,-5.18
-12.69,-1.00,0.10,-2.10,-2.10,-1.47
-13.09,-1.29,0.43,6.37,6.37,6.37
-12.75,-1.33,0.76,13.16,15.05,15.05
-12.97,-0.64,1.38,19.46,19.46,19.95
-13.03,-0.05,1.75,22.12,22.12,22.12
-11.95,0.22,1.93,22.75,22.96,22.96
-10.50,0.35,1.66,23.80,23.80,24.01
-9.29,0.28,1.38,25.06,25.06,25.06
-9.11,0.30,1.37,25.90,25.90,25.90
-9.77,0.45,1.53,26.11,26.11,26.11
-9.91,0.48,1.44,26.39,26.74,26.74
-8.34,-0.11,0.50,33.95,33.95,33.95
-7.21,-0.41,-0.19,45.50,45.50,45.50
-6.66,-0.47,-0.55,52.15,53.97,53.97
-6.93,-0.17,-0.98,58.73,58.73,59.29
-3.65,-0.71,-2.04,71.61,72.73,72.73
-1.79,-1.72,-2.98,77.98,77.98,80.43
0.37,-2.66,-4.65,91.21,92.82,92.82
1.58,-2.56,-6.51,100.10,100.59,101.22
0.76,-0.77,-8.31,97.93,97.93,96.81
-3.86,2.34,-8.31,75.18,75.18,75.18
-9.43,5.83,-7.88,47.74,47.74,47.74
-11.45,5.94,-7.91,-10.71,-10.71,-10.71
-10.91,5.08,-8.19,-53.41,-53.41,-53.41
-9.70,4.29,-8.19,-78.68,-78.68,-78.68
-8.12,3.18,-7.86,-104.30,-104.30,-104.30
-6.29,1.97,-8.12,-103.81,-103.81,-103.81
-3.88,-0.16,-8.48,-71.96,-87.29,-87.29
-5.35,-0.55,-8.01,-66.36,-63.07,-63.07
-5.74,-0.80,-8.37,-34.30,-34.30,-31.64
-6.13,-0.28,-8.72,-21.70,-19.67,-19.04
-10.15,1.91,-7.66,-21.49,-21.49,-21.49
-10.95,2.23,-7.62,-28.49,-28.91,-28.91
-8.22,0.88,-7.98,-30.52,-31.15,-31.15
-6.79,0.35,-8.20,-31.99,-32.34,-32.83
-7.92,1.94,-7.79,-35.63,-36.26,-36.26
-6.80,1.80,-8.05,-41.93,-41.93,-42.63
-5.73,1.45,-8.15,-45.85,-47.11,-47.53
-6.89,1.84,-8.01,-49.42,-49.63,-49.63
-6.93,1.77,-7.44,-50.61,-50.75,-50.75
-6.09,1.34,-6.62,-52.50,-52.71,-52.71
-5.54,0.96,-5.73,-54.60,-54.60,-54.67
-5.36,0.48,-4.69,-52.64,-52.15,-52.15
-5.96,0.33,-3.74,-47.81,-47.81,-47.81
-6.88,0.10,-2.53,-37.24,-37.24,-37.24
-6.86,-0.62,-1.61,-25.06,-25.06,-25.06
-6.35,-1.08,-0.50,-5.11,-2.80,-2.80
-5.87,-0.90,-0.12,12.74,14.77,14.77
-5.42,-0.64,-0.11,26.95,28.28,28.28
-5.69,-0.34,0.00,34.72,38.01,38.01
-5.80,-0.28,0.36,42.63,44.94,44.94
-6.40,0.13,0.68,48.44,49.14,50.33
-6.97,0.30,0.88,53.06,53.48,53.48
-8.10,0.49,1.12,55.58,55.58,55.58
-9.20,0.78,1.39,53.55,53.06,53.06
-9.94,0.99,1.49,49.98,49.98,49.56
-10.72,1.28,1.67,46.83,46.83,46.55
-10.92,1.36,1.70,44.66,43.75,43.26
-10.99,1.25,1.79,39.90,39.90,39.90
-11.28,0.84,1.76,37.94,37.87,37.66
-11.39,-0.03,1.75,38.50,38.50,38.85
-11.61,-0.26,1.87,41.72,41.72,41.72
-12.40,-0.17,1.97,40.88,40.88,40.88
-13.31,-0.23,2.13,37.52,36.05,36.05
-13.75,-0.77,1.99,31.50,29.82,29.82
-14.13,-1.22,1.92,24.78,24.78,22.89
-14.47,-1.17,1.94,15.96,15.96,15.96
-14.37,-1.47,1.46,2.24,2.24,2.24
-14.13,-2.04,0.91,-6.58,-6.58,-6.58
-13.77,-2.68,0.57,-11.55,-11.55,-11.55
-13.38,-2.85,0.30,-14.84,-15.05,-15.05
-12.86,-2.75,0.08,-16.59,-16.80,-16.80
-12.08,-2.52,-0.10,-17.36,-17.22,-17.22
-11.34,-2.28,-0.23,-15.68,-15.68,-15.68
-11.20,-1.88,-0.10,-12.25,-12.25,-12.25
-11.49,-1.56,0.08,-10.85,-10.43,-10.43
-11.90,-1.30,0.28,-9.17,-9.17,-9.17
-12.36,-1.24,0.44,-5.88,-5.88,-5.88
-12.91,-0.91,0.68,-0.35,0.35,0.35
-13.09,-0.74,0.95,4.69,5.25,5.25
-13.02,-0.45,1.05,7.91,9.03,9.59
-12.37,-0.39,1.02,12.04,12.95,13.37
-12.06,-0.17,1.17,14.70,14.98,14.98
-12.46,0.22,1.40,13.65,12.81,12.46
-12.50,0.41,1.48,10.08,10.08,8.54
-13.00,0.36,1.33,5.18,5.18,4.90
-13.20,-0.02,1.18,4.48,4.48,4.48
-13.04,-0.48,1.12,6.86,7.91,7.91
-12.48,-0.86,1.14,11.13,12.39,12.39
-12.26,-0.54,1.20,16.03,16.03,16.66
-10.91,-0.51,1.12,21.63,21.63,22.54
-9.18,-0.94,1.04,31.71,31.71,31.71
-8.48,-1.20,1.30,38.92,40.11,40.11
-8.68,-0.67,1.52,50.26,50.26,51.31
-8.48,0.05,1.64,55.02,55.02,56.56
-8.19,0.38,1.59,58.52,58.52,58.87
-7.39,0.26,1.37,61.88,61.88,62.37
-7.13,0.59,1.35,72.94,72.94,72.94
-7.35,0.63,1.83,73.01,73.01,73.01
-7.65,0.69,2.83,70.98,70.98,70.98
-6.81,0.33,2.90,68.60,68.60,68.60
-4.49,-0.37,2.11,68.60,68.60,68.60
-3.91,-0.19,1.56,65.87,65.87,65.87
-5.25,0.33,1.53,60.62,60.62,60.62
-6.00,-0.08,1.80,50.26,49.14,49.14
-5.27,-0.96,1.36,41.23,39.97,39.97
-5.64,-0.50,0.63,27.44,27.44,25.69
-6.78,0.50,0.29,13.86,13.86,11.97
-7.79,0.99,0.86,-8.96,-8.96,-11.48
-8.62,1.09,1.44,-25.76,-25.76,-28.07
-10.04,0.89,1.83,-40.67,-40.67,-42.42
-10.20,0.09,2.26,-50.82,-50.82,-51.31
-9.93,-1.08,2.56,-51.03,-51.03,-50.40
-10.05,-1.52,2.68,-44.66,-44.66,-43.75
-10.54,-1.72,2.55,-35.56,-35.56,-34.30
-9.75,-2.09,2.28,-27.23,-27.23,-25.83
-8.79,-2.46,2.15,-15.47,-15.47,-11.27
-8.89,-2.37,2.63,-1.82,-1.82,-1.82
-9.12,-1.91,3.04,7.21,7.21,7.21
-9.60,-1.02,3.52,12.74,12.74,12.74
-10.10,-0.37,4.13,12.32,12.32,11.97
-9.95,0.03,4.68,7.91,7.91,6.51
-8.97,0.02,5.09,0.07,0.07,0.07
-8.22,-0.49,5.30,-5.81,-5.81,-6.51
-7.31,-0.80,5.62,-11.55,-11.55,-11.55
-7.72,-0.38,6.39,-18.62,-18.62,-18.62
-7.93,0.19,6.69,-28.56,-28.56,-28.56
-6.89,0.03,6.23,-35.63,-37.94,-37.94
-5.56,-0.36,5.14,-43.05,-44.45,-44.45
-4.95,-0.78,3.85,-47.53,-48.44,-48.44
-5.12,-0.93,2.94,-50.40,-50.40,-50.40
-6.63,-0.54,3.01,-52.08,-52.22,-52.22
-6.78,-0.46,2.69,-52.99,-53.13,-53.13
-5.94,-0.50,1.93,-53.13,-53.13,-52.57
-5.18,-0.50,1.20,-50.68,-50.68,-49.07
-4.85,-0.34,0.65,-43.96,-43.96,-42.91
-5.50,-0.24,0.74,-34.23,-34.23,-34.23
-6.55,0.06,0.79,-26.18,-26.18,-26.18
-7.46,0.62,0.56,-19.67,-19.67,-19.67
-7.50,0.78,0.06,-11.20,-11.20,-10.22
-7.19,0.89,-0.15,-6.02,-4.62,-4.13
-6.97,1.14,-0.60,-1.40,-1.40,-0.35
-7.27,1.53,-1.18,0.98,1.12,1.12
-7.41,1.38,-1.78,2.73,2.73,2.87
-8.13,1.57,-2.07,3.22,3.22,3.22
-8.69,2.19,-2.37,1.40,1.40,1.40
-8.42,2.12,-2.95,-3.57,-3.57,-3.57
-9.75,1.23,-3.79,-2.38,-2.38,-2.38
-11.30,1.40,-4.21,12.32,12.32,12.32
-11.42,0.86,-4.23,20.65,24.43,24.43
-12.64,-0.26,-4.56,47.11,47.11,48.79
-12.49,-0.21,-4.83,60.83,60.83,60.83
-13.06,0.93,-4.64,60.90,60.90,60.90
-13.84,1.99,-4.08,49.98,49.98,49.98
-14.27,1.90,-3.70,34.65,32.76,32.76
-14.30,1.19,-3.52,17.08,17.08,15.54
-13.94,0.62,-3.30,7.63,7.63,3.29
-13.72,0.16,-2.72,-5.88,-5.88,-5.88
-13.35,-0.47,-2.50,-13.37,-13.37,-13.37
-12.96,-2.14,-2.00,-16.87,-16.87,-16.87
-12.61,-1.94,-1.68,-17.92,-17.92,-17.92
-12.21,-2.26,-1.26,-19.18,-19.11,-19.11
-11.56,-2.42,-1.10,-18.06,-17.71,-17.71
-10.02,-2.57,-0.96,-11.27,-10.71,-10.71
-9.93,-2.47,-0.96,-9.38,-8.68,-8.68
-9.50,-2.50,-1.31,-7.70,-7.42,-7.14
-9.65,-2.49,-1.64,-5.25,-5.25,-5.25
-9.92,-2.21,-1.51,-6.58,-6.72,-6.72
-9.74,-2.18,-1.37,-8.54,-8.68,-8.68
-9.59,-2.32,-1.36,-9.80,-9.80,-9.80
-9.88,-2.50,-1.30,-9.87,-9.94,-9.94
-10.31,-2.81,-1.34,-8.68,-8.54,-8.54
-12.08,-2.77,-0.96,4.83,5.25,5.95
-13.83,-1.51,-0.50,6.51,6.51,6.51
-14.47,-0.42,-1.29,-5.32,-5.32,-5.32
-12.91,-0.88,-1.30,-11.97,-11.97,-11.97
-13.14,-0.70,-1.05,-14.49,-16.38,-16.38
-12.68,-0.35,-1.01,-20.16,-20.93,-22.47
-11.27,-0.42,-0.83,-26.53,-26.60,-26.60
-10.02,-0.82,-0.47,-24.85,-24.85,-24.08
-9.38,-1.46,-0.08,-19.11,-16.52,-15.33
-10.34,-1.37,0.64,-8.89,-6.72,-6.72
-10.76,-1.25,1.12,0.07,0.07,0.84
-10.41,-0.96,1.35,2.87,3.85,4.41
-9.00,-1.19,1.45,8.33,10.43,11.76
-6.55,-2.10,1.20,19.18,22.68,24.57
-4.75,-2.78,0.84,34.58,34.58,40.81
-4.43,-2.57,1.06,50.12,53.27,54.67
-3.90,-2.05,1.33,60.76,61.46,61.46
-2.93,-1.82,1.20,63.84,63.84,63.77
-1.82,-2.05,0.65,62.51,62.51,62.51
-1.69,-2.80,0.23,62.09,62.09,62.09
-3.68,-2.82,0.93,60.62,60.62,60.62
-5.00,-3.62,1.35,55.86,55.86,55.86
-4.43,-4.59,1.28,47.11,47.11,47.11
-4.06,-4.76,1.19,42.84,41.44,41.44
-3.64,-4.62,0.88,37.52,37.52,37.52
-3.77,-5.53,1.00,31.01,31.01,31.01
-4.52,-6.69,1.40,25.48,25.48,25.48
-6.22,-7.43,1.76,20.23,20.23,18.20
-8.20,-7.21,2.33,10.92,10.92,10.01
-7.99,-7.38,2.32,4.83,4.41,4.41
-6.50,-8.07,2.09,1.75,1.47,1.47
-7.02,-8.71,2.60,0.63,0.63,0.70
-7.45,-9.44,2.51,2.94,2.94,3.36
-6.18,-9.80,2.21,7.63,8.61,8.61
-4.91,-9.65,1.77,9.31,9.17,9.17
-5.35,-9.34,1.67,4.69,4.69,4.69
-6.00,-9.09,1.61,-2.73,-2.73,-3.85
-6.69,-8.84,1.54,-15.19,-15.19,-15.19
-7.27,-8.96,1.66,-23.94,-23.94,-23.94
-8.11,-8.57,1.52,-35.21,-35.21,-35.21
-7.52,-8.69,1.17,-39.27,-40.04,-40.04
-6.28,-9.11,0.93,-40.74,-40.74,-40.74
-6.18,-9.39,1.04,-38.78,-38.29,-38.29
-7.25,-9.14,1.21,-35.56,-33.25,-33.25
-7.63,-9.31,1.55,-25.62,-24.29,-24.29
-6.97,-7.85,1.99,8.82,8.82,9.80
-7.70,-6.44,2.39,13.58,13.58,14.07
-8.10,-5.52,2.70,16.52,16.52,16.52
-7.25,-5.04,2.47,17.92,17.92,17.92
-6.08,-4.44,1.82,18.41,18.27,18.27
-5.18,-3.86,1.47,18.41,18.48,18.48
-5.40,-3.05,1.28,18.62,18.62,18.62
-6.14,-2.57,1.42,17.36,17.36,17.36
-6.43,-2.10,1.40,15.89,15.26,15.26
-6.36,-1.54,1.19,13.09,13.09,12.25
-6.04,-0.84,1.02,9.03,8.47,8.47
-6.35,-0.25,1.06,3.08,3.08,2.38
-7.06,0.20,1.08,-2.38,-2.38,-3.01
-7.25,0.33,1.08,-6.58,-6.58,-6.58
-6.70,0.23,0.96,-9.87,-10.08,-10.08
-5.91,0.18,0.92,-10.85,-10.99,-10.99
-5.59,0.43,0.93,-10.50,-10.50,-10.50
-5.98,0.63,1.04,-9.87,-9.87,-9.59
-6.55,0.56,1.24,-7.35,-7.35,-7.35
-6.99,0.59,1.25,-4.27,-4.27,-4.27
-7.89,1.00,1.17,0.42,0.42,0.42
-8.80,1.78,1.06,1.61,1.61,1.61
-8.98,2.39,0.85,-0.49,-0.77,-0.77
-9.13,2.90,0.70,-3.29,-3.85,-4.90
-10.22,3.89,0.39,-7.63,-8.12,-8.12
-11.41,4.49,0.30,-10.78,-10.85,-10.85
-12.81,4.78,0.50,-10.50,-10.36,-10.36
-14.01,4.99,0.76,-9.59,-9.59,-9.59
-15.00,4.79,1.27,-8.61,-8.61,-8.61
-15.60,3.57,1.31,-6.93,-6.93,-5.74
-15.71,1.72,1.41,0.21,1.19,1.19
-15.48,0.84,1.53,11.06,12.04,12.04
-14.86,0.74,1.64,15.96,15.96,17.64
-13.85,0.94,1.71,18.83,18.83,19.04
-12.62,1.28,1.73,17.71,17.71,17.71
-11.44,1.53,1.70,15.75,14.84,14.42
-10.47,1.84,1.76,11.76,11.76,10.08
-9.64,2.04,1.90,5.95,5.95,5.95
-9.18,2.12,1.81,0.00,0.00,0.00
-9.01,2.06,1.75,-3.08,-3.99,-3.99
-9.04,2.00,1.71,-7.14,-7.14,-7.56
-9.23,2.11,1.86,-13.02,-13.02,-13.02
-9.44,2.27,2.04,-17.29,-17.29,-17.29
-9.53,2.30,2.06,-21.91,-22.19,-22.19
-9.64,2.02,1.85,-23.94,-24.01,-24.01
-9.95,1.71,1.79,-24.01,-23.87,-23.87
-10.39,1.67,1.91,-22.54,-22.54,-22.54
-10.66,1.73,2.18,-20.44,-20.37,-20.37
-11.05,1.96,2.37,-20.23,-20.51,-20.51
-11.32,1.87,2.39,-21.07,-21.21,-21.21
-11.60,1.75,2.36,-20.51,-20.51,-20.37
-12.29,1.71,2.40,-19.67,-19.39,-19.18
-13.12,1.89,2.54,-19.04,-19.04,-19.04
-13.86,2.12,3.01,-20.51,-20.51,-20.65
-14.14,1.90,3.31,-21.35,-21.35,-21.28
-13.54,1.58,3.48,-18.76,-18.76,-18.76
-12.98,1.38,3.50,-15.33,-14.07,-14.07
-12.09,1.45,3.22,-9.24,-8.61,-8.61
-11.21,1.44,2.85,-3.29,-2.45,-2.45
-10.72,1.53,2.57,1.82,1.82,2.38
-10.15,1.66,2.50,6.44,6.93,6.93
-10.94,2.18,2.60,9.45,9.59,9.59
-11.67,2.51,2.37,10.85,10.85,10.85
-11.97,2.57,2.13,11.48,11.83,11.97
-10.88,2.38,1.76,13.86,13.86,13.86
-10.29,2.58,1.88,16.52,16.59,16.59
-10.19,3.39,2.10,16.31,15.89,15.47
-9.99,3.95,2.04,13.16,13.16,11.62
-8.06,3.67,1.45,8.54,8.54,8.05
-6.01,3.11,0.79,6.09,5.88,5.88
-5.38,2.54,0.52,4.97,4.62,4.55
-5.50,2.13,0.67,3.99,3.99,3.64
-5.51,1.65,0.83,3.78,3.78,3.78
-5.11,0.66,0.89,7.49,8.19,8.19
-4.61,-0.25,0.53,18.41,18.41,19.88
-3.55,-1.31,-0.06,30.17,30.17,31.78
-2.43,-3.19,-0.98,43.68,43.68,46.06
-2.34,-3.67,-1.80,69.44,69.44,69.44
-4.29,-2.11,-1.91,85.75,85.75,85.75
-8.02,-0.10,-1.25,89.46,89.46,89.46
-10.61,2.28,-0.98,84.00,81.13,81.13
-9.45,2.90,-1.13,69.65,65.03,65.03
-8.69,2.91,-1.70,50.26,50.26,45.08
-9.09,2.74,-2.07,29.68,29.68,24.78
-9.04,2.28,-2.30,10.50,10.50,6.02
-9.07,2.15,-2.75,-6.93,-6.93,-6.93
-8.43,1.74,-2.93,-24.36,-24.36,-24.36
-8.15,1.05,-3.01,-33.46,-33.46,-33.46
-7.58,0.45,-3.05,-37.10,-37.10,-37.52
-6.77,-0.06,-2.95,-39.06,-39.06,-39.06
-6.31,-0.29,-2.56,-39.06,-39.06,-39.06
-5.81,-0.33,-2.28,-38.78,-38.78,-38.78
-5.96,-0.22,-1.76,-39.13,-39.13,-39.62
-7.34,0.23,-1.19,-41.65,-41.65,-41.65
-8.10,0.80,-0.39,-47.53,-47.53,-47.53
-8.11,0.93,0.00,-52.71,-52.71,-52.71
-8.15,1.23,0.23,-58.31,-58.31,-58.31
-8.83,1.49,0.21,-61.81,-62.93,-62.93
-8.76,1.39,0.27,-65.17,-65.52,-65.52
-7.88,1.02,0.22,-65.73,-65.73,-65.73
-7.03,0.53,-0.02,-62.37,-62.37,-62.37
-7.26,0.48,-0.20,-56.56,-56.56,-56.56
-7.47,0.21,-0.32,-47.25,-47.25,-47.25
-7.32,-0.24,-0.27,-35.77,-35.77,-35.77
-7.34,-0.68,-0.20,-26.60,-23.45,-23.45
-8.95,-0.53,-0.29,-13.30,-11.90,-11.90
-10.03,-0.35,-0.14,0.28,0.28,1.61
-10.52,-0.46,-0.09,8.33,10.99,12.32
-10.91,-0.40,0.01,21.49,21.49,21.49
-11.57,0.29,0.27,29.12,29.89,29.89
-12.23,1.28,0.59,33.25,33.25,33.32
-11.69,1.79,0.72,34.23,34.23,34.23
-10.67,2.24,0.79,34.93,35.07,35.07
-10.39,2.90,0.89,35.21,35.14,35.14
-10.60,3.19,0.88,33.11,32.69,32.69
-10.93,3.34,0.94,29.12,28.63,28.63
-10.88,3.13,0.86,24.57,24.15,24.15
-12.44,1.83,1.16,11.48,11.48,10.64
-12.47,1.70,1.28,4.48,4.48,3.36
-12.46,1.48,1.26,-4.48,-4.48,-5.60
-12.43,1.08,1.18,-12.67,-12.67,-13.51
-12.23,0.54,1.10,-17.57,-17.57,-17.57
-12.20,0.11,1.07,-17.85,-17.78,-17.78
-12.04,-0.22,0.97,-17.01,-16.59,-16.59
-12.02,-0.62,0.83,-14.98,-14.98,-14.98
-12.16,-1.02,0.62,-12.18,-11.83,-11.83
-12.52,-1.16,0.57,-10.15,-9.87,-9.87
-12.59,-0.98,0.55,-10.57,-10.57,-10.78
-12.14,-0.84,0.54,-13.44,-13.93,-13.93
-11.38,-1.04,0.41,-16.38,-16.38,-16.31
-10.67,-1.14,0.42,-15.26,-15.26,-15.26
-10.15,-1.10,0.61,-12.95,-12.67,-12.67
-9.78,-0.95,0.74,-11.69,-11.41,-11.06
-9.54,-0.81,0.92,-9.73,-9.73,-9.66
-9.63,-0.74,1.11,-7.77,-7.77,-7.77
-10.11,-0.55,1.30,-7.56,-7.56,-7.70
-11.39,-0.30,2.05,-14.70,-14.70,-14.70
-11.71,-0.50,2.38,-17.78,-17.78,-18.48
-12.31,-0.92,2.90,-19.74,-19.74,-19.74
-12.70,-1.60,3.41,-18.76,-18.76,-18.76
-12.26,-1.93,4.72,-8.75,-8.75,-8.75
-12.37,-1.79,4.82,-4.34,-3.71,-3.71
-12.37,-1.45,4.79,-1.47,-0.63,-0.21
-12.83,-1.20,4.80,2.66,2.66,2.66
-14.66,-0.81,4.92,5.74,7.14,7.14
-14.69,-1.02,4.85,10.43,12.60,12.60
-12.25,-1.22,4.57,18.83,18.83,18.83
-9.76,-1.37,4.26,28.49,28.49,28.49
-7.62,-1.45,4.20,35.98,35.98,35.98
-6.53,-1.50,3.57,45.78,45.78,45.78
-5.66,-1.67,2.74,61.39,61.39,61.39
-4.92,-1.38,2.07,71.12,73.78,73.78
-3.48,-0.72,1.16,79.45,79.94,79.94
-2.35,-0.17,0.29,77.77,77.77,76.23
-1.42,-0.33,-0.88,70.21,70.21,70.21
-0.47,-0.95,-2.07,62.23,62.23,62.23
0.85,-2.00,-3.90,58.59,58.59,58.59
1.89,-3.26,-5.94,61.32,61.32,61.32
1.32,-3.16,-8.64,63.49,62.79,62.79
-1.04,0.35,-9.03,53.76,51.10,51.10
-4.35,4.87,-8.07,12.39,12.39,6.72
-10.30,6.82,-6.84,-30.24,-36.26,-36.26
-12.27,4.71,-6.47,-81.55,-81.55,-85.33
-13.03,2.50,-6.76,-99.61,-103.25,-104.51
-11.45,1.28,-7.49,-107.17,-107.17,-105.4
-8.77,0.06,-8.34,-97.65,-97.65,-95.48
-6.87,-1.43,-9.16,-69.30,-69.30,-65.80
-8.00,-1.37,-9.25,-46.13,-46.13,-42.91
-11.97,-0.91,-8.74,-6.02,-6.02,-6.02
-13.24,-0.38,-8.43,-2.52,-1.96,-1.96
-12.03,-0.21,-8.43,-1.89,-1.89,-2.38
-10.44,0.08,-7.82,-10.15,-10.15,-10.15
-9.81,0.95,-6.88,-20.30,-20.30,-20.30
-8.88,1.11,-6.40,-27.23,-29.12,-29.12
-7.38,0.52,-5.98,-33.32,-33.32,-34.44
-6.22,-0.10,-5.50,-36.33,-36.33,-36.33
-5.92,-0.13,-4.41,-37.17,-37.17,-37.17
-6.91,0.30,-3.50,-36.12,-36.12,-36.12
-7.42,0.19,-2.73,-32.62,-32.62,-32.62
-7.05,-0.22,-2.35,-27.86,-26.95,-26.95
-6.60,-0.61,-1.65,-16.45,-16.45,-15.19
-6.63,-0.72,-1.13,-7.56,-7.56,-6.44
-6.76,-0.72,-0.67,1.54,1.54,2.66
-6.67,-0.59,-0.71,8.96,8.96,9.73
-6.44,-0.50,-0.64,14.84,14.84,14.84
-6.43,-0.56,-0.62,17.22,17.78,17.78
-7.16,-0.63,-0.46,19.46,19.46,19.67
-8.20,-0.63,-0.18,21.42,21.42,21.42
-8.19,-0.74,-0.13,22.68,22.96,22.96
-7.53,-0.81,-0.15,24.01,24.01,24.01
-8.03,-0.57,0.09,24.22,24.22,24.22
-8.54,-0.57,0.37,24.36,24.50,24.50
-8.73,-0.43,0.63,25.13,25.13,25.06
-9.02,-0.09,0.77,24.71,24.36,24.22
-9.68,0.22,1.04,23.03,23.03,22.26
-9.64,0.34,1.22,20.93,20.93,20.65
-10.29,0.73,2.40,11.55,11.55,11.55
-10.95,0.56,2.65,7.42,5.88,5.88
-11.25,0.03,3.00,1.75,1.75,0.28
-11.71,-0.77,3.27,-4.90,-4.90,-4.90
-12.43,-1.15,3.51,-10.43,-10.43,-10.43
-12.99,-1.38,3.51,-17.22,-17.22,-17.22
-13.37,-2.21,3.37,-24.50,-24.50,-24.50
-13.36,-3.07,3.04,-30.17,-30.17,-30.17
-13.35,-3.11,2.65,-36.68,-36.68,-36.68
-13.18,-2.98,2.23,-41.09,-42.56,-42.56
-12.76,-3.31,1.43,-46.13,-46.13,-46.90
-11.94,-3.54,0.60,-43.12,-43.12,-43.12
-11.36,-3.57,0.46,-38.43,-38.43,-37.52
-11.03,-3.46,0.25,-28.70,-28.70,-28.70
-10.68,-3.40,0.16,-22.47,-20.65,-20.65
-10.10,-3.01,0.06,-14.00,-14.00,-13.16
-9.37,-2.68,0.19,-6.86,-6.86,-6.86
-8.83,-2.26,0.50,-1.61,-0.84,-0.84
-8.55,-1.80,0.96,4.20,4.62,4.62
-8.39,-1.61,1.19,7.00,7.28,7.28
-8.40,-1.41,1.36,8.12,8.33,8.33
-8.60,-1.25,1.62,8.19,7.98,7.77
-8.86,-1.27,1.87,7.07,6.93,6.93
-9.26,-1.42,2.17,5.67,5.25,4.97
-9.99,-1.53,2.68,2.66,2.66,2.66
-10.37,-1.65,3.19,-1.54,-2.10,-2.10
-10.52,-1.96,3.49,-5.39,-6.02,-6.02
-10.85,-2.18,3.88,-10.78,-10.78,-11.13
-11.77,-2.55,4.14,-13.86,-13.86,-13.86
-12.30,-2.94,4.27,-15.75,-15.68,-15.68
-12.53,-3.24,4.06,-14.98,-14.63,-14.14
-13.31,-3.27,3.85,-11.97,-11.62,-11.62
-13.05,-3.05,3.34,-8.26,-8.26,-7.98
-12.17,-2.82,2.89,-4.90,-4.90,-4.41
-11.74,-2.91,2.36,-1.12,-1.12,-0.56
-12.03,-2.84,1.91,6.79,6.79,6.79
-12.44,-2.85,1.86,13.58,13.58,13.58
-13.04,-2.55,2.02,19.18,19.95,19.95
-12.79,-2.62,2.19,26.67,26.67,26.67
-11.35,-2.48,2.06,33.04,34.16,34.16
-10.07,-2.36,1.65,42.21,42.21,43.19
-9.17,-1.77,1.15,51.87,51.87,52.71
-8.37,-1.45,0.90,56.28,56.28,56.28
-7.41,-0.93,0.21,56.91,56.77,56.77
-6.41,-0.52,-0.20,54.60,54.04,54.04
-5.70,-0.50,-0.71,49.28,49.28,48.72
-5.49,-0.38,-0.88,45.71,45.71,45.29
-5.68,-0.17,-0.87,40.25,40.25,40.25
-6.13,-0.10,-0.91,36.19,34.86,34.86
-6.39,-0.32,-0.91,30.94,30.94,30.94
-6.37,-0.83,-1.33,25.83,25.83,25.83
-7.41,-0.74,-1.44,22.54,22.54,22.54
-8.14,-1.12,-1.40,20.16,20.16,20.16
-7.65,-1.32,-1.29,18.62,18.48,18.48
-7.71,-1.36,-1.32,18.41,18.62,18.62
-7.81,-1.44,-1.31,20.09,20.86,21.28
-7.38,-1.73,-1.31,23.59,23.59,24.99
-7.37,-1.96,-1.43,28.14,28.14,28.14
-7.28,-2.06,-1.35,32.48,32.48,32.48
-7.17,-2.09,-1.43,34.79,34.79,34.79
-7.35,-2.16,-1.59,35.49,35.49,35.49
-8.39,-2.07,-1.53,33.18,32.76,32.76
-9.42,-1.97,-1.33,29.05,28.28,28.28
-10.09,-2.07,-1.20,22.54,21.77,21.77
-10.90,-2.23,-1.04,14.98,14.98,14.98
-11.99,-2.66,-0.72,9.45,8.96,8.96
-12.78,-3.38,-0.30,7.84,7.84,7.84
-12.95,-4.37,0.14,9.80,10.36,10.36
-12.76,-5.14,0.36,13.37,15.61,15.61
-12.49,-5.21,0.66,20.37,21.00,21.00
-12.17,-4.80,0.79,23.59,23.73,23.73
-11.67,-4.12,0.69,22.54,22.19,22.19
-10.86,-3.53,0.48,17.85,17.01,17.01
-10.29,-3.19,0.17,10.29,9.24,9.24
-10.36,-2.78,-0.06,1.40,0.35,0.35
-11.37,-2.34,0.16,-6.58,-7.42,-7.42
-11.70,-2.21,0.30,-11.20,-12.46,-12.88
-11.63,-1.93,0.41,-14.84,-14.84,-15.47
-10.92,-1.60,0.52,-16.03,-16.03,-15.89
-9.55,-1.54,0.67,-14.49,-14.07,-14.07
-7.20,-1.51,1.12,-3.64,-3.64,-3.08
-7.36,-0.96,1.56,-0.49,0.21,0.63
-7.05,-0.59,1.76,2.17,2.17,2.31
-5.46,-0.60,1.10,3.43,3.43,3.43
-3.60,-1.17,0.20,4.48,4.48,4.48
-2.86,-1.67,-1.12,9.31,9.31,9.31
-4.61,-1.15,-2.01,11.90,11.90,12.11
-8.20,0.13,-2.18,8.26,8.26,7.00
-11.52,1.18,-1.88,-11.34,-11.34,-11.34
-11.41,0.74,-1.79,-29.61,-29.61,-31.99
-11.47,0.22,-1.45,-52.01,-52.01,-52.01
-11.69,-0.44,-1.38,-61.60,-63.63,-63.63
-10.51,-1.73,-1.79,-65.59,-65.59,-65.59
-9.82,-2.60,-1.84,-59.85,-59.85,-59.85
-9.35,-2.83,-1.64,-47.32,-47.32,-47.32
-8.51,-3.32,-1.53,-30.45,-25.83,-25.83
-7.67,-3.53,-1.45,-11.83,-11.83,-7.49
-8.07,-2.60,-1.35,4.97,6.23,6.23
-8.58,-1.92,-1.19,12.18,12.60,12.60
-8.60,-1.59,-1.15,12.95,12.95,12.67
-8.91,-0.95,-1.18,8.82,8.82,7.98
-9.43,-0.20,-1.15,-1.47,-1.47,-2.59
-9.26,-0.22,-1.02,-11.13,-11.13,-12.25
-9.09,-0.40,-0.97,-17.92,-17.92,-18.97
-8.70,-0.44,-0.95,-26.81,-26.81,-27.51
-8.08,-0.39,-1.00,-31.64,-31.64,-31.64
-7.59,-0.33,-0.86,-34.93,-34.93,-34.93
-7.95,-0.22,-0.58,-38.15,-38.43,-38.43
-7.78,-0.40,-0.45,-39.20,-39.27,-39.27
-7.48,-0.41,-0.40,-39.41,-39.20,-39.20
-7.12,-0.40,-0.36,-38.85,-38.85,-38.78
-7.15,-0.32,-0.18,-38.78,-38.78,-38.85
-7.81,-0.13,-0.12,-38.71,-38.71,-38.64
-8.70,-0.02,-0.02,-38.29,-38.01,-38.01
-8.29,-0.39,-0.06,-36.82,-36.82,-35.84
-7.72,-0.75,-0.10,-33.95,-33.95,-33.11
-7.58,-1.06,0.00,-28.56,-28.56,-28.56
-7.68,-0.74,-0.02,-21.49,-21.49,-21.49
-7.96,-0.44,-0.13,-21.00,-21.00,-21.00
-8.64,-0.37,-0.20,-20.93,-20.93,-20.93
-8.87,-0.72,-0.23,-19.46,-18.27,-18.27
-8.71,-0.66,0.03,-12.53,-12.18,-12.18
-8.71,-0.33,0.14,-9.31,-8.75,-8.05
-9.16,-0.14,0.45,-5.25,-4.69,-4.06
-9.69,-0.19,0.56,1.82,1.82,1.82
-10.69,-0.12,0.71,7.63,7.63,7.63
-11.31,0.04,1.02,10.29,10.29,10.29
-11.39,0.59,1.18,9.52,9.52,9.17
-11.15,0.87,1.36,4.90,4.90,4.34
-11.47,0.76,1.61,1.89,0.98,0.42
-11.96,0.51,1.83,-1.89,-2.24,-2.24
-12.20,0.63,2.23,-8.40,-8.40,-8.40
-12.62,0.76,2.34,-14.07,-16.31,-16.31
-13.17,0.57,2.54,-23.24,-23.24,-24.36
-13.57,-0.19,2.46,-32.69,-32.69,-32.69
-13.45,-1.64,2.10,-35.84,-35.84,-35.84
-13.48,-2.67,1.73,-34.93,-34.93,-34.93
-11.35,-4.30,0.06,-27.65,-27.65,-27.65
-10.99,-5.14,-0.28,-22.26,-19.88,-19.88
-10.53,-5.29,-0.69,-11.06,-11.06,-9.94
-10.18,-5.19,-0.91,-1.47,-1.47,-1.47
-9.92,-5.07,-0.95,2.38,3.43,3.43
-10.10,-4.92,-0.77,6.44,6.44,7.56
-10.15,-4.36,-0.43,9.94,9.94,9.94
-9.93,-3.80,-0.09,9.03,9.03,9.03
-9.68,-3.17,0.17,6.72,5.67,5.67
-9.30,-3.04,0.32,3.08,3.08,3.08
-9.30,-3.21,0.42,0.98,0.98,0.98
-9.20,-3.24,0.43,0.35,0.35,0.35
-8.86,-3.27,0.46,-0.07,-0.07,-0.07
-8.58,-3.18,0.54,0.21,0.21,0.21
-8.46,-3.24,0.61,0.77,0.77,0.77
-8.47,-3.21,0.67,1.47,1.47,1.47
-8.62,-3.24,0.57,1.89,1.82,1.82
-8.84,-3.18,0.56,1.40,1.40,1.19
-8.90,-2.98,0.53,0.14,0.14,-0.42
-8.88,-2.74,0.48,-1.89,-1.89,-1.89
-8.71,-2.75,0.35,-4.41,-4.41,-4.41
-8.81,-2.79,0.29,-4.83,-4.90,-4.90
-8.88,-2.80,0.16,-5.11,-5.11,-5.11
-8.71,-2.85,0.04,-5.18,-5.25,-5.25
-8.55,-3.11,-0.15,-4.69,-4.69,-4.13
-8.65,-3.36,-0.29,-2.45,-2.45,-2.03
-8.87,-3.57,-0.35,1.54,1.54,1.89
-9.15,-3.55,-0.38,3.57,3.57,3.71
-9.22,-3.79,-0.52,4.83,4.83,4.83
-9.21,-4.06,-0.60,6.65,6.65,6.65
-9.06,-4.05,-0.59,8.75,9.17,9.17
-8.80,-4.34,-0.78,10.22,10.22,10.22
-9.10,-4.59,-0.85,11.83,12.11,12.11
-9.19,-4.69,-0.84,13.58,13.58,13.72
-9.14,-4.45,-0.72,13.09,13.09,12.88
-8.94,-4.35,-0.70,11.06,11.06,11.06
-8.98,-4.77,-0.69,10.01,9.87,9.87
-9.19,-4.99,-0.70,9.59,9.59,9.45
-9.00,-4.97,-0.69,8.40,8.40,8.40
-8.81,-5.12,-0.82,6.72,6.72,6.72
-8.94,-5.29,-0.95,5.39,5.25,5.25
-9.00,-5.27,-0.93,4.34,4.34,4.13
-9.07,-5.22,-0.90,1.47,1.47,1.47
-9.48,-5.34,-0.85,-0.35,-0.84,-0.84
-10.09,-5.93,-0.83,-2.52,-2.52,-2.52
-10.42,-6.26,-0.87,-3.15,-3.15,-3.15
-10.56,-6.24,-0.88,-3.29,-3.22,-3.22
-10.30,-5.90,-0.90,-3.85,-3.85,-3.85
-9.74,-5.74,-0.96,-4.69,-4.69,-4.69
-9.63,-5.72,-1.03,-5.11,-5.11,-5.11
-9.91,-5.52,-0.91,-5.18,-5.18,-5.18
-9.86,-5.24,-0.84,-5.46,-5.46,-5.46
-9.72,-4.85,-0.71,-6.23,-6.23,-6.23
-9.32,-4.50,-0.60,-7.14,-7.14,-7.14
-9.10,-4.40,-0.46,-6.86,-6.86,-6.86
-8.97,-4.32,-0.32,-5.74,-5.32,-5.32
-8.70,-4.10,-0.18,-3.43,-2.73,-2.73
-8.47,-3.91,-0.02,-0.21,-0.21,0.77
-8.34,-3.84,0.13,3.50,4.13,5.46
-8.25,-3.65,0.20,9.87,10.50,10.50
-8.20,-3.46,0.24,13.79,13.79,13.79
-8.31,-3.34,0.42,17.85,18.27,18.27
-8.50,-3.36,0.48,21.49,22.05,22.05
-8.59,-3.28,0.54,24.50,24.85,24.85
-8.67,-2.99,0.60,26.32,26.32,26.32
-8.65,-2.51,0.66,24.99,24.99,24.99
-8.66,-2.17,0.78,20.72,20.72,20.72
-8.71,-2.12,0.90,17.78,16.87,16.87
-8.74,-2.01,0.92,14.07,14.07,13.65
-8.79,-1.74,0.91,8.68,8.68,8.68
-8.85,-1.48,0.95,4.13,4.13,4.13
-8.75,-1.33,0.95,-1.26,-1.26,-1.26
-8.80,-1.25,0.93,-3.43,-4.06,-4.06
-8.89,-1.21,0.89,-5.81,-5.81,-6.37
-9.29,-1.19,0.81,-8.26,-8.47,-8.47
-9.64,-1.17,0.80,-10.71,-10.71,-10.85
-10.03,-1.24,0.76,-11.90,-12.04,-12.04
-10.13,-1.36,0.67,-13.02,-13.02,-13.02
-10.02,-1.52,0.59,-12.32,-12.11,-12.11
-9.98,-1.50,0.56,-10.64,-10.64,-10.36
-9.66,-1.80,0.52,1.61,1.61,1.61
-9.82,-1.57,0.60,4.41,4.41,4.90
-9.67,-1.33,0.62,7.49,7.49,7.49
-9.67,-1.18,0.68,8.61,8.61,8.61
-9.65,-1.00,0.71,8.47,8.47,8.47
-9.56,-1.13,0.62,7.91,7.91,7.91
-9.65,-1.00,0.64,7.21,7.21,7.21
-9.49,-1.05,0.57,5.46,5.32,5.32
-9.49,-0.98,0.62,4.13,3.43,3.43
-9.54,-1.02,0.65,2.10,1.68,1.26
-9.47,-1.36,0.59,0.63,0.63,0.49
-9.44,-1.44,0.67,0.49,0.49,0.49
-9.38,-1.62,0.54,0.91,0.91,1.05
-9.54,-1.78,0.57,1.68,2.10,2.17
-9.64,-1.91,0.55,3.22,3.22,3.36
-9.80,-1.92,0.56,3.99,3.99,3.99
-9.92,-1.96,0.59,4.62,4.62,4.62
-9.92,-2.01,0.61,4.97,4.97,4.97
-9.91,-1.89,0.67,4.76,4.76,4.76
-9.80,-1.93,0.67,4.41,4.41,4.41
-9.74,-1.94,0.69,4.20,4.06,4.06
-9.61,-1.78,0.72,3.43,3.43,3.36
-9.41,-1.75,0.63,1.96,1.96,1.75
-9.25,-1.93,0.50,0.70,0.70,0.70
-9.32,-2.02,0.47,0.77,0.77,0.77
-9.54,-2.11,0.45,0.91,0.91,0.91
-9.76,-2.11,0.44,0.49,0.49,0.49
-9.85,-2.06,0.47,-0.56,-0.98,-0.98
-9.78,-2.03,0.45,-2.31,-2.31,-2.31
-9.63,-2.05,0.42,-2.94,-2.94,-2.94
-9.56,-2.09,0.39,-3.22,-3.22,-3.22
-9.61,-2.07,0.38,-3.29,-3.36,-3.36
-9.68,-2.01,0.40,-3.99,-3.99,-4.06
-9.70,-1.92,0.37,-4.69,-4.69,-4.69
-9.77,-1.96,0.39,-5.46,-5.46,-5.46
-9.87,-1.90,0.40,-6.09,-6.09,-6.09
-9.77,-1.97,0.33,-6.37,-6.37,-6.37
-9.72,-1.97,0.30,-6.51,-6.51,-6.51
-9.62,-1.99,0.23,-6.58,-6.58,-6.58
-9.55,-2.05,0.22,-6.23,-6.09,-6.09
-9.53,-2.10,0.22,-5.60,-5.39,-5.39
-9.59,-2.22,0.22,-4.34,-4.34,-4.06
-9.67,-2.21,0.25,-3.01,-3.01,-3.01
-9.68,-2.31,0.28,-1.75,-1.75,-1.75
-9.68,-2.31,0.30,0.14,0.14,0.14
-9.70,-2.20,0.36,0.91,1.05,1.05
-9.61,-2.24,0.37,1.61,1.75,1.75
-9.65,-2.17,0.42,2.31,2.38,2.38
-9.54,-2.06,0.44,2.45,2.45,2.59
-9.52,-2.16,0.36,2.52,2.52,2.73
-9.69,-2.12,0.36,2.45,2.31,2.24
-9.64,-2.26,0.32,1.89,1.89,1.82
-9.70,-2.32,0.28,1.89,1.89,1.75
-9.67,-2.34,0.23,1.82,1.82,1.82
-9.57,-2.34,0.18,1.68,1.68,1.61
-9.64,-2.23,0.20,0.98,0.98,0.84
-9.60,-2.22,0.21,0.35,0.00,-0.07
-9.65,-2.15,0.21,-0.63,-0.63,-1.05
-9.62,-2.12,0.22,-1.75,-1.75,-2.03
-9.59,-2.10,0.22,-3.08,-3.08,-3.01
-9.65,-2.13,0.22,-3.50,-3.50,-3.50
-9.64,-2.20,0.22,-3.22,-3.22,-3.22
-9.73,-2.21,0.22,-2.73,-2.73,-2.73
-9.68,-2.19,0.22,-2.38,-2.17,-2.17
-9.64,-2.22,0.19,-1.96,-1.89,-1.68
-9.65,-2.18,0.23,-0.91,-0.91,-0.84
-9.65,-2.23,0.25,0.56,0.56,0.56
-9.63,-2.17,0.27,0.98,0.98,1.05
-9.51,-2.22,0.23,1.54,1.54,1.54
-9.60,-2.16,0.29,2.03,2.03,2.03
-9.53,-2.15,0.25,2.03,2.03,2.03
-9.52,-2.09,0.24,1.82,1.82,1.82
-9.57,-2.16,0.22,1.26,1.26,1.26
-9.65,-2.18,0.27,1.26,1.19,1.19
-9.73,-2.20,0.28,0.77,0.77,0.91
-9.70,-2.23,0.25,0.77,0.84,0.70
-9.64,-2.19,0.26,0.35,0.35,0.35
-9.70,-2.10,0.35,0.00,0.00,0.00
-9.65,-2.06,0.36,-0.28,-0.35,-0.42
-9.60,-2.04,0.34,-0.63,-0.63,-0.63
-9.53,-1.90,0.29,-1.89,-1.89,-1.89
-9.49,-1.97,0.24,-1.96,-1.96,-2.03
-9.50,-1.94,0.21,-2.10,-2.10,-2.17
-9.46,-2.03,0.15,-2.10,-2.10,-2.10
-9.55,-2.01,0.19,-1.89,-1.89,-1.89
-9.51,-2.14,0.16,-1.40,-1.40,-1.40
-9.67,-2.08,0.18,-0.77,-0.77,-0.70
-9.69,-2.12,0.15,-0.28,-0.28,-0.28
-9.67,-2.05,0.17,-0.14,-0.14,-0.14
-9.62,-2.10,0.12,0.07,0.07,0.07
-9.67,-2.09,0.16,0.49,0.49,0.49
-9.65,-2.12,0.15,0.35,0.35,0.35
-9.70,-2.23,0.11,0.56,0.56,0.56
-9.78,-2.34,0.07,0.84,0.84,0.84
-9.78,-2.35,0.07,0.91,0.98,0.98
-9.73,-2.32,0.07,0.98,0.98,1.05
-9.62,-2.26,0.12,0.98,0.98,0.91
-9.55,-2.22,0.16,0.49,0.49,0.49
-9.61,-2.14,0.21,0.21,0.00,0.00
-9.58,-2.12,0.20,-0.70,-0.70,-0.70
-9.59,-2.12,0.25,-1.61,-1.61,-1.75
-9.55,-2.10,0.22,-2.10,-2.10,-2.24
-9.49,-2.13,0.25,-2.45,-2.45,-2.45
-9.49,-2.20,0.26,-2.38,-2.38,-2.38
-9.62,-2.21,0.28,-2.24,-2.24,-2.10
-9.59,-2.24,0.22,-1.89,-1.89,-1.89
-9.63,-2.22,0.20,-1.19,-1.19,-1.19
-9.56,-2.27,0.09,-0.91,-0.77,-0.77
-9.58,-2.29,0.07,-0.49,-0.21,-0.21
-9.60,-2.32,0.05,0.00,0.14,0.14
-9.64,-2.28,-0.00,0.35,0.49,0.49
-9.71,-2.27,0.00,0.35,0.42,0.42
-9.75,-2.22,0.03,0.00,0.00,0.00
-9.77,-2.17,0.05,-0.14,-0.14,-0.14
-9.65,-2.22,0.02,-0.28,-0.07,-0.07
-9.69,-2.21,0.05,0.21,0.42,0.49
-9.66,-2.19,0.01,0.98,0.98,1.05
-9.68,-2.16,-0.01,1.12,1.12,1.05
-9.65,-2.07,-0.01,0.56,0.56,0.56
-9.64,-2.00,-0.01,-0.14,-0.28,-0.28
-9.59,-1.98,-0.02,-1.19,-1.19,-1.26
-9.70,-1.98,-0.00,-2.24,-2.24,-2.24
-9.74,-2.06,0.01,-2.59,-2.66,-2.66
-9.79,-2.14,0.01,-2.73,-2.73,-2.73
-9.67,-2.12,0.03,-2.38,-2.38,-2.38
-9.53,-2.13,0.05,-1.82,-1.82,-1.82
-9.44,-2.15,0.10,-0.49,-0.49,-0.49
-9.49,-2.08,0.19,0.77,0.77,0.77
-9.54,-2.08,0.24,1.40,1.40,1.40
-9.57,-2.04,0.27,1.96,1.96,1.89
-9.53,-2.02,0.29,2.38,2.38,2.45
-9.45,-2.04,0.30,2.73,2.73,2.73
-9.42,-2.06,0.30,2.94,2.94,2.94
-9.47,-2.08,0.23,3.15,3.15,3.15
-9.46,-2.10,0.23,3.22,3.01,3.01
-9.48,-2.10,0.18,2.80,2.80,2.66
-9.46,-2.07,0.18,2.10,2.10,2.10
-9.50,-2.03,0.21,1.47,1.40,1.40
-9.57,-1.99,0.20,0.28,0.28,0.14
-9.65,-2.03,0.18,-0.70,-0.70,-0.91
-9.75,-2.03,0.18,-1.33,-1.75,-1.75
-9.82,-2.06,0.15,-2.17,-2.17,-2.45
-9.72,-2.10,0.06,-2.87,-2.87,-2.87
-9.65,-2.15,0.01,-2.80,-2.80,-2.80
-9.71,-2.15,0.04,-2.87,-2.87,-2.87
-9.75,-2.12,0.07,-3.43,-3.64,-3.64
-9.66,-2.14,0.11,-4.55,-4.69,-4.69
-9.56,-2.13,0.05,-5.18,-5.18,-5.18
-9.46,-2.13,-0.01,-5.60,-5.74,-5.74
-9.48,-2.10,-0.03,-6.23,-6.23,-6.23
-9.50,-2.10,-0.04,-7.35,-7.35,-7.28
-9.54,-2.06,-0.07,-8.05,-8.05,-8.12
-9.68,-2.01,-0.04,-8.61,-8.61,-8.75
-9.71,-1.99,-0.10,-9.59,-9.59,-9.66
-9.78,-2.00,-0.14,-10.08,-10.08,-10.08
-9.82,-1.94,-0.17,-10.43,-10.50,-10.50
-9.73,-1.94,-0.26,-10.85,-10.85,-10.85
-9.72,-1.97,-0.34,-10.64,-10.64,-10.64
-9.75,-2.01,-0.38,-9.94,-9.94,-9.94
-9.82,-2.07,-0.43,-8.96,-8.89,-8.89
-9.85,-2.03,-0.44,-8.40,-8.12,-7.98
-9.82,-2.07,-0.51,-7.35,-7.28,-6.86
-9.84,-2.08,-0.51,-5.74,-5.74,-5.60
-9.71,-2.08,-0.53,-4.20,-4.20,-4.20
-9.61,-2.12,-0.54,-2.94,-2.45,-2.45
-9.69,-2.13,-0.49,-1.12,-0.56,-0.56
-9.68,-2.12,-0.45,0.42,0.42,0.77
-9.60,-2.12,-0.43,2.03,2.03,2.03
-9.61,-2.12,-0.40,3.57,3.78,3.78
-9.54,-2.14,-0.36,4.48,4.97,4.97
-9.47,-2.12,-0.33,5.67,5.67,5.95
-9.44,-2.06,-0.30,6.79,6.79,6.79
-9.39,-1.99,-0.28,6.72,6.72,6.72
-9.48,-1.91,-0.20,4.55,4.55,4.55
-9.53,-1.95,-0.18,3.22,3.22,3.22
-9.50,-1.97,-0.16,2.31,1.89,1.89
-9.50,-2.03,-0.14,1.12,0.91,0.91
-9.48,-2.11,-0.15,-0.07,-0.14,-0.14
-9.44,-2.18,-0.21,-1.05,-1.05,-1.05
-9.42,-2.17,-0.23,-1.47,-1.47,-1.47
-9.44,-2.10,-0.30,-1.96,-1.96,-1.96
-9.45,-2.02,-0.33,-2.66,-2.66,-2.66
-9.50,-1.93,-0.35,-4.62,-4.62,-4.62
-9.48,-1.89,-0.39,-6.44,-6.44,-6.44
-9.45,-1.91,-0.45,-7.77,-7.91,-7.91
-9.51,-1.96,-0.51,-8.89,-8.96,-8.96
-9.50,-2.02,-0.60,-9.94,-10.01,-10.01
-9.49,-2.04,-0.68,-10.64,-10.64,-10.71
-9.49,-2.06,-0.72,-10.99,-10.99,-10.92
-9.45,-2.01,-0.73,-11.06,-11.06,-11.13
-9.44,-1.95,-0.73,-11.55,-11.55,-11.55
-9.47,-1.78,-0.67,-12.25,-12.25,-12.25
-9.47,-1.65,-0.66,-13.65,-13.93,-13.93
-9.39,-1.56,-0.78,-15.26,-15.26,-15.47
-9.21,-1.51,-0.92,-17.50,-17.50,-17.50
-9.08,-1.54,-1.08,-19.04,-19.04,-19.04
-9.15,-1.70,-1.45,-23.73,-23.73,-23.73
-9.15,-1.82,-1.59,-25.13,-25.34,-25.34
-9.24,-1.86,-1.74,-27.09,-27.23,-27.23
-9.27,-1.87,-1.82,-28.28,-28.28,-28.28
-9.20,-1.86,-1.91,-29.26,-29.26,-29.26
-9.07,-1.90,-2.02,-29.75,-29.75,-29.75
-8.98,-1.94,-2.15,-29.75,-29.75,-29.75
-9.05,-1.95,-2.22,-29.33,-29.33,-29.33
-9.17,-1.97,-2.40,-28.28,-28.28,-28.28
-9.20,-1.98,-2.57,-27.65,-27.65,-27.65
-9.16,-1.96,-2.73,-27.16,-27.16,-27.09
-9.16,-1.92,-2.90,-26.67,-26.67,-26.67
-9.15,-1.84,-3.02,-26.53,-26.53,-26.53
-9.03,-1.77,-3.22,-26.88,-26.88,-26.88
-8.98,-1.72,-3.37,-27.37,-27.58,-27.58
-9.04,-1.61,-3.63,-28.56,-29.12,-29.12
-9.05,-1.40,-3.91,-31.71,-31.71,-31.71
-8.99,-1.23,-4.19,-36.96,-37.59,-37.59
-8.83,-1.12,-4.40,-41.58,-42.28,-42.28
-8.61,-1.03,-4.58,-45.08,-45.71,-45.71
-8.50,-0.97,-4.75,-48.79,-49.14,-49.14
-8.43,-0.88,-4.98,-52.43,-52.43,-52.64
-8.49,-0.79,-5.13,-54.53,-54.53,-54.88
-8.64,-0.47,-5.22,-56.70,-57.61,-58.17
-8.64,-0.12,-5.45,-61.95,-61.95,-62.44
-8.71,0.09,-5.54,-66.50,-66.50,-66.50
-8.72,0.35,-5.69,-73.71,-74.34,-74.34
-8.61,0.65,-5.81,-78.68,-79.31,-81.34
-8.41,0.98,-5.92,-87.57,-87.57,-88.55
-8.26,1.24,-5.93,-97.44,-97.44,-97.44
-8.12,1.52,-5.91,-103.32,-105.49,-105.49
-7.71,1.83,-5.99,-111.58,-111.58,-113.75
-7.31,2.18,-6.09,-120.19,-120.19,-120.19
-6.95,2.55,-6.15,-129.92,-129.92,-129.92
-6.65,2.85,-6.13,-135.59,-136.64,-136.64
-6.42,3.24,-6.10,-146.37,-146.37,-147.42
-6.29,3.73,-6.08,-154.84,-154.84,-156.17
-6.08,4.09,-6.12,-168.56,-168.56,-168.56
-5.80,4.32,-6.21,-177.73,-179.20,-179.20
-5.90,4.73,-6.28,-189.21,-189.21,-190.54
-6.09,5.06,-6.39,-202.93,-202.93,-202.93
-6.17,5.48,-6.33,-211.40,-211.40,-211.40
-5.85,6.04,-6.36,-225.47,-225.47,-229.25
-5.15,6.38,-6.56,-240.94,-240.94,-240.94
-4.78,6.60,-6.60,-252.07,-252.07,-252.07
-5.38,6.75,-6.09,-254.94,-254.94,-254.94
-5.73,6.93,-5.75,-256.83,-257.46,-257.46
-5.34,7.03,-5.33,-257.81,-257.04,-257.04
-4.80,6.60,-4.84,-252.00,-252.00,-249.13
-4.96,6.56,-4.03,-237.23,-237.23,-237.23
-5.41,6.85,-2.75,-212.10,-212.10,-212.10
-5.61,6.89,-1.88,-190.89,-190.89,-190.89
-5.54,7.03,-1.31,-174.30,-168.77,-168.77
-5.28,7.20,-0.67,-151.76,-151.76,-148.82
-4.88,7.50,-0.07,-129.36,-129.36,-129.36
-4.35,7.71,0.31,-104.93,-104.93,-104.93
-3.72,7.96,0.54,-90.72,-90.72,-90.72
-3.43,8.18,0.78,-74.83,-73.29,-73.29
-3.63,9.35,1.31,-56.77,-56.00,-56.00
-3.43,9.69,1.41,-53.13,-53.13,-53.13
-3.19,9.90,1.51,-52.85,-52.99,-52.99
-2.95,10.00,1.58,-53.55,-53.69,-53.69
-2.33,9.88,2.07,-56.56,-56.56,-56.56
-2.28,9.93,2.29,-56.21,-56.21,-56.21
-2.19,9.71,2.55,-55.16,-54.81,-54.81
-2.16,9.31,2.70,-52.01,-51.31,-51.31
-2.02,9.04,2.86,-48.37,-46.27,-46.27
-1.80,8.78,3.05,-42.35,-39.62,-39.62
-1.65,8.30,3.09,-32.06,-30.87,-30.87
-1.78,8.02,3.10,-21.14,-19.53,-19.53
-2.25,8.15,3.24,-10.99,-9.52,-9.52
-2.61,8.29,3.28,1.68,1.68,2.87
-2.72,8.44,3.35,7.98,9.80,10.64
-2.62,8.70,3.35,15.75,15.75,15.75
-2.40,9.16,3.22,19.25,19.53,19.53
-2.12,9.36,3.04,19.81,19.81,19.95
-1.96,9.40,3.02,19.60,19.53,19.53
-1.88,9.33,3.07,19.39,19.39,19.39
-2.01,9.07,3.04,20.09,20.09,20.23
-2.67,9.05,2.80,27.02,27.02,27.37
-2.81,9.21,2.65,30.59,30.59,30.94
-2.80,9.26,2.58,31.92,31.92,31.99
-2.48,9.25,2.47,32.27,32.13,32.13
-2.27,9.38,2.09,31.64,31.64,31.64
-2.18,9.47,1.71,29.47,29.47,29.47
-2.36,9.44,1.64,27.44,26.60,26.60
-2.58,9.31,1.53,25.06,25.06,24.71
-2.78,9.07,1.38,24.15,24.15,24.15
-2.77,9.08,1.14,24.50,24.50,24.64
-2.51,9.06,0.92,24.99,24.99,24.99
-2.21,8.94,0.77,24.78,24.78,24.78
-1.95,8.50,0.52,25.69,25.69,25.69
-2.02,8.46,0.32,28.91,28.91,28.91
-2.09,8.92,0.26,30.03,30.03,30.03
-1.90,9.07,0.05,29.96,29.82,29.82
-1.62,9.10,-0.13,28.84,28.84,28.84
-1.52,9.10,-0.36,28.63,28.63,28.63
-1.61,9.38,-0.52,28.63,28.63,28.63
-1.61,9.67,-0.69,27.23,27.23,27.23
-1.54,9.75,-0.71,24.29,24.29,24.29
-1.39,9.59,-0.74,19.95,19.95,19.95
-1.41,9.50,-0.82,17.85,17.85,17.85
-1.46,9.43,-0.97,15.89,15.61,15.61
-1.41,9.38,-1.04,14.35,14.35,14.21
-1.32,9.44,-1.02,12.81,12.81,12.81
-1.12,9.60,-0.92,11.62,11.62,11.41
-1.06,9.66,-0.84,10.71,10.71,10.71
-0.99,9.96,-0.95,10.92,10.92,10.92
-0.96,10.23,-0.95,10.92,10.92,10.92
-1.10,10.50,-0.81,8.89,8.89,8.89
-1.18,10.69,-0.69,4.62,4.62,4.62
-1.13,10.72,-0.65,0.63,0.63,-0.49
-1.12,10.48,-0.65,-3.57,-3.57,-3.57
-1.10,10.02,-0.82,-5.32,-5.32,-5.32
-1.15,9.69,-0.95,-4.76,-4.76,-4.76
-1.30,9.47,-0.92,-2.94,-2.94,-2.94
-1.40,9.17,-0.89,-1.19,-3.85,-3.85
-1.23,12.90,-3.16,-16.80,-20.93,-20.93
-2.09,12.23,-3.35,-29.47,-30.80,-31.78
-0.98,7.34,-0.28,-14.35,-12.46,-12.46
-0.91,8.94,0.20,-4.76,-4.34,-4.34
-1.29,9.96,-0.11,-5.88,-6.30,-6.30
-1.26,9.34,-0.11,-8.96,-10.01,-10.01
-2.12,8.28,0.22,-9.31,-9.10,-8.47
-4.00,9.16,0.00,-15.75,-17.29,-17.29
-3.75,8.50,-1.81,-32.83,-31.08,-31.08
-3.05,10.46,0.75,-44.87,-44.87,-50.19
-1.51,8.45,-0.67,-68.53,-72.24,-73.36
-1.46,7.60,-0.27,-90.44,-90.44,-90.44
-2.59,7.80,0.34,-98.28,-98.28,-97.86
-6.36,8.68,1.08,-91.98,-91.98,-88.69
-5.35,8.87,1.26,-68.74,-68.74,-68.74
-5.20,8.41,1.24,-70.14,-70.14,-70.14
-6.56,7.23,1.47,-63.77,-62.16,-62.16
-7.03,6.20,2.13,-55.51,-55.51,-52.22
-7.25,5.74,2.60,-39.76,-39.76,-36.89
-8.94,4.77,3.05,-13.37,-13.37,-13.37
-8.51,4.92,2.73,21.70,21.70,21.70
-9.01,4.57,2.68,33.74,36.61,36.61
-11.60,6.65,2.36,18.83,16.38,16.38
-11.54,6.25,2.60,1.68,1.68,1.68
-11.45,5.39,1.40,-20.65,-20.65,-20.65
-15.25,-3.42,3.68,-44.38,-44.38,-44.38
-13.05,6.74,4.43,-54.32,-54.32,-54.32
-12.33,5.63,3.93,-60.34,-60.34,-60.34
-11.61,4.36,3.50,-69.37,-69.37,-69.37
-10.02,1.47,3.61,-57.75,-57.75,-57.75
-8.48,0.10,3.01,-28.63,-28.63,-28.63
-7.35,0.64,2.57,-11.90,-11.90,-9.59
-6.80,0.65,2.24,8.47,8.47,8.47
-7.26,0.64,2.58,22.89,22.89,22.89
-7.98,1.26,2.81,33.11,33.11,33.11
-8.16,2.27,2.86,38.57,38.57,38.57
-8.50,2.69,2.89,35.98,35.98,35.98
-8.99,2.50,2.92,32.97,32.97,31.99
-9.29,1.98,3.12,30.31,30.31,30.31
-9.46,1.68,3.12,28.49,28.49,28.49
-9.45,1.63,3.15,27.58,27.58,27.58
-9.38,1.52,3.09,27.37,27.37,27.37
-9.07,1.42,2.94,28.14,28.42,28.42
-8.82,1.01,2.94,30.31,30.31,30.66
-8.73,0.78,3.02,33.04,33.04,33.53
-8.70,0.89,2.90,35.21,35.21,35.35
-8.83,1.10,2.95,35.42,35.42,35.42
-9.13,0.92,2.95,35.49,35.49,35.49
-9.49,0.42,2.97,35.49,35.49,35.49
-9.54,-0.01,2.85,34.86,34.51,34.51
-9.12,-0.44,2.60,32.76,32.13,32.13
-9.03,-0.76,2.39,30.59,30.59,30.17
-9.33,-1.00,2.09,27.65,27.65,27.65
-8.77,-1.14,1.61,25.13,25.13,25.13
-8.68,-1.17,1.36,22.68,21.63,21.63
-8.07,-0.99,1.28,18.13,18.13,18.13
-8.07,-0.97,0.91,14.49,14.49,14.49
-8.58,-0.59,0.93,11.41,11.41,11.41
-9.49,0.00,0.67,5.95,5.95,5.95
-9.84,0.08,0.56,-17.85,-0.84,-0.84
-9.96,0.06,0.64,-5.39,-5.39,-6.16
-10.29,0.09,0.65,-11.20,-11.20,-11.20
-10.82,0.80,0.52,-15.61,-15.61,-15.61
-10.89,1.19,0.45,-19.81,-19.81,-19.81
-10.83,1.18,0.52,-24.57,-25.41,-25.41
-10.36,0.19,0.63,-25.69,-25.69,-24.64
-9.82,-1.26,0.61,-17.71,-17.71,-14.00
-9.22,-2.39,0.59,0.49,0.49,0.49
-8.88,-2.70,0.80,27.79,31.01,31.01
-8.82,-2.13,0.88,47.18,47.18,49.49
-8.62,-1.21,0.74,61.32,61.32,61.32
-8.21,0.53,0.44,61.53,61.53,61.53
-8.11,1.24,0.41,50.47,50.47,50.47
-9.33,1.55,0.76,42.98,41.23,41.23
-10.66,1.36,1.12,37.17,37.17,37.17
-10.70,1.81,1.06,31.71,31.71,30.80
-9.79,2.16,0.57,20.86,20.86,20.86
-8.69,1.94,0.36,15.75,15.19,15.19
-9.40,1.06,0.39,17.85,17.85,19.74
-10.13,1.16,0.32,26.04,26.04,26.04
-8.65,2.79,-0.82,18.62,18.62,18.62
-8.33,2.60,-0.99,10.92,10.92,10.92
-9.30,2.12,-1.00,9.17,9.17,9.17
-9.84,2.51,-1.01,11.27,11.27,11.27
-9.86,3.35,-1.32,9.24,9.24,9.24
-10.04,4.03,-1.53,-0.49,-0.49,-0.49
-10.57,4.28,-1.62,-5.88,-5.88,-6.37
-11.06,4.18,-1.62,-8.40,-8.40,-8.40
-11.43,4.68,-1.54,-8.19,-8.19,-8.19
-11.39,5.39,-1.33,-14.07,-15.19,-15.19
-11.15,6.13,-1.28,-23.10,-29.05,-29.05
-11.20,5.95,-1.12,-43.05,-43.05,-43.05