aX,aY,aZ,gX,gY,gZ
-9.99,-1.57,1.32,7.35,7.35,7.35
-9.80,-1.60,1.30,2.45,2.45,2.45
-9.82,-1.71,1.33,-0.70,-0.70,-0.70
-9.63,-1.76,1.31,-3.57,-3.57,-3.57
-9.27,-1.91,1.29,-5.11,-5.11,-5.11
-9.04,-2.01,1.37,-4.76,-4.62,-4.62
-8.84,-2.19,1.54,-3.01,-3.01,-2.66
-8.78,-2.20,1.62,0.77,0.77,1.12
-8.90,-2.18,1.76,3.08,3.08,3.08
-9.31,-2.13,1.97,5.25,6.02,6.02
-9.44,-1.99,1.97,7.00,7.21,7.21
-9.39,-1.84,2.06,7.07,6.93,6.93
-9.48,-1.77,2.15,6.58,6.44,6.44
-9.61,-1.64,2.18,5.60,4.83,4.83
-9.62,-1.47,2.21,3.01,1.47,1.47
-9.06,-1.37,1.91,-10.85,-11.83,-11.83
-8.95,-1.49,1.72,-15.26,-15.26,-15.75
-9.06,-1.55,1.63,-18.90,-19.25,-19.25
-9.22,-1.74,1.58,-21.42,-21.42,-21.70
-9.50,-1.89,1.45,-22.26,-22.26,-22.33
-9.58,-2.05,1.22,-23.31,-23.31,-23.31
-9.53,-2.35,0.99,-23.03,-23.03,-22.82
-9.61,-2.49,0.78,-21.14,-21.14,-21.14
-9.66,-2.63,0.43,-17.99,-17.57,-17.57
-9.58,-2.61,0.28,-15.54,-15.33,-15.33
-9.52,-2.79,0.03,-12.04,-12.04,-11.48
-9.52,-2.87,-0.09,-9.03,-9.03,-8.54
-9.59,-2.90,-0.28,-4.76,-4.76,-4.76
-9.83,-2.97,-0.34,-2.45,-1.68,-1.68
-10.01,-3.08,-0.43,0.49,1.05,1.05
-10.04,-3.13,-0.59,3.57,4.27,4.27
-10.00,-3.22,-0.75,6.65,6.65,7.49
-10.38,-3.11,-0.83,9.59,9.59,9.59
-10.21,-3.07,-0.91,10.78,10.99,10.99
-9.71,-3.04,-1.01,11.97,12.18,12.18
-9.41,-3.03,-1.00,13.23,13.23,13.37
-9.29,-3.01,-0.81,14.84,14.84,14.84
-9.18,-2.97,-0.64,16.59,16.59,16.59
-8.93,-2.92,-0.54,17.22,17.22,17.22
-8.89,-2.89,-0.33,17.50,17.57,17.57
-9.11,-2.83,-0.17,17.08,17.08,17.08
-9.29,-2.75,-0.03,15.47,15.19,15.19
-9.20,-2.73,0.01,13.72,12.74,12.74
-9.41,-2.65,0.08,6.79,6.79,6.79
-9.53,-2.64,0.09,4.55,3.71,3.71
-9.49,-2.76,0.11,1.47,1.47,1.47
-9.57,-2.76,0.18,-0.63,-0.63,-0.63
-9.60,-2.80,0.20,-3.64,-3.64,-3.64
-9.66,-2.97,0.23,-7.07,-7.07,-7.21
-9.70,-3.01,0.18,-7.77,-7.91,-7.91
-9.74,-3.04,0.20,-8.33,-8.33,-8.19
-9.76,-3.07,0.15,-8.19,-8.19,-8.05
-10.11,-3.10,0.10,-4.69,-4.69,-4.69
-10.20,-3.06,0.08,-3.64,-3.64,-3.50
-10.17,-2.98,0.02,-2.38,-2.38,-2.38
-10.05,-2.91,0.01,-1.75,-1.75,-1.75
-9.99,-2.86,0.04,-1.47,-1.33,-1.33
-10.08,-2.76,0.02,-1.61,-1.61,-1.61
-10.32,-2.51,0.08,-3.08,-3.08,-3.08
-10.56,-2.34,0.05,-4.69,-4.69,-4.90
-10.56,-2.29,0.13,-7.77,-7.77,-7.77
-10.74,-2.23,0.18,-10.01,-10.01,-10.01
-10.84,-2.22,0.19,-12.53,-12.53,-12.53
-10.88,-2.22,0.20,-14.35,-15.12,-15.12
-11.05,-2.27,0.19,-16.87,-16.87,-16.87
-10.98,-2.33,0.01,-20.86,-20.86,-20.86
-10.72,-2.20,-0.05,-22.33,-22.33,-22.33
-10.31,-2.21,-0.11,-23.24,-23.45,-23.45
-9.96,-2.23,-0.07,-23.59,-23.52,-23.52
-9.96,-2.20,0.02,-22.54,-22.54,-22.54
-10.05,-2.18,0.00,-21.98,-21.77,-21.77
-10.13,-2.10,-0.02,-21.35,-21.35,-21.35
-10.13,-2.12,0.01,-21.21,-21.21,-21.00
-10.12,-2.17,-0.02,-20.37,-20.37,-20.16
-10.23,-2.19,-0.04,-18.13,-18.13,-18.06
-10.11,-2.09,-0.03,-16.73,-16.73,-16.73
-10.21,-1.98,-0.00,-15.61,-15.61,-15.61
-10.21,-1.92,0.04,-14.56,-14.07,-14.07
-9.78,-1.91,0.09,-12.53,-12.53,-12.53
-9.67,-1.90,0.16,-9.10,-9.10,-9.10
-9.77,-1.90,0.27,-5.81,-5.81,-5.81
-9.52,-1.88,0.21,-3.78,-3.78,-3.78
-9.05,-1.67,0.14,-2.94,-2.94,-2.94
-8.80,-1.71,0.13,-1.05,-1.05,-1.05
-8.95,-1.82,0.13,1.26,1.47,1.47
-8.98,-1.77,-0.07,2.80,2.80,2.80
-9.39,-1.73,-0.18,3.01,3.01,3.08
-9.51,-1.94,-0.05,4.13,4.62,4.62
-9.74,-2.19,-0.03,7.21,7.70,7.70
-9.69,-2.30,-0.11,11.27,11.27,11.62
-9.48,-2.45,-0.09,13.93,13.93,14.21
-9.26,-2.54,0.00,18.13,18.13,18.13
-9.25,-2.45,-0.01,21.14,21.14,21.14
-9.16,-2.41,0.04,24.36,24.36,24.85
-9.24,-2.40,0.09,27.72,27.72,28.14
-8.95,-2.41,0.12,30.59,31.22,31.22
-8.66,-2.47,0.13,33.11,33.88,33.88
-8.71,-2.55,0.12,36.33,36.33,36.33
-8.95,-2.53,0.15,39.62,39.62,39.62
-8.89,-2.57,0.19,40.81,40.81,40.95
-8.98,-2.54,0.30,41.23,41.23,41.23
-9.47,-2.43,0.22,40.88,40.88,40.88
-9.34,-2.31,0.22,39.62,38.92,38.92
-9.42,-2.10,0.24,35.84,35.84,34.72
-9.49,-1.90,0.25,29.12,29.12,29.12
-9.06,-1.83,0.22,22.54,22.54,22.54
-9.02,-1.84,0.25,17.78,16.31,16.31
-9.21,-1.83,0.35,12.25,10.99,10.99
-9.02,-1.99,0.41,7.56,7.56,6.51
-8.72,-2.11,0.51,3.64,3.64,2.80
-8.71,-1.84,0.57,-0.84,-0.84,-0.84
-9.09,-1.74,0.54,-4.48,-4.48,-4.48
-8.87,-1.99,0.79,-9.24,-9.24,-9.24
-8.50,-2.10,0.64,-11.34,-11.41,-11.41
-8.54,-2.12,0.58,-13.30,-13.51,-13.51
-8.57,-2.11,0.67,-15.68,-15.68,-15.68
-8.91,-2.25,0.58,-18.76,-18.76,-18.76
-9.42,-2.38,0.59,-19.67,-19.95,-19.95
-9.64,-2.37,0.72,-19.74,-19.74,-19.60
-9.18,-2.40,0.61,-19.04,-18.97,-18.97
-9.35,-2.55,0.42,-17.22,-17.22,-16.94
-9.03,-2.76,0.38,-14.77,-13.65,-13.09
-8.72,-2.85,0.46,-9.87,-8.54,-7.91
-9.16,-2.56,0.47,-4.76,-3.43,-3.43
-9.25,-2.20,0.50,-0.07,-0.07,-0.07
-9.32,-1.91,0.45,2.24,2.24,2.24
-9.51,-1.78,0.62,3.71,3.92,3.92
-9.56,-1.79,0.80,5.32,5.53,5.53
-9.71,-1.87,0.80,7.70,7.70,7.98
-9.39,-2.17,0.83,9.45,9.45,9.73
-8.97,-2.24,0.96,12.60,12.60,12.60
-8.54,-2.15,0.87,14.42,14.42,14.42
-8.52,-2.07,0.91,15.12,15.12,15.05
-8.87,-1.94,1.10,14.56,14.56,14.56
-9.12,-1.64,1.23,12.04,12.04,12.04
-9.13,-1.51,1.29,9.38,9.38,8.40
-9.54,-1.48,1.27,4.06,3.36,3.36
-9.12,-1.75,1.19,-1.75,-1.75,-2.31
-8.75,-1.75,1.19,-5.67,-5.67,-6.09
-9.27,-1.74,1.13,-9.24,-9.24,-9.66
-8.69,-2.32,0.69,-14.49,-14.49,-14.49
-9.24,-2.36,0.73,-15.12,-15.12,-15.12
-9.23,-2.52,0.73,-14.91,-14.91,-14.77
-9.44,-2.82,0.63,-14.14,-14.14,-14.14
-9.53,-3.11,0.45,-12.46,-12.46,-12.46
-9.12,-3.21,0.50,-10.43,-10.43,-10.43
-8.73,-3.06,0.45,-9.31,-9.31,-9.24
-9.24,-2.81,0.11,-9.45,-9.45,-9.45
-9.41,-2.85,0.16,-10.01,-9.94,-9.94
-9.47,-2.72,0.30,-9.59,-9.38,-9.45
-9.42,-2.67,0.17,-9.38,-9.38,-9.45
-9.55,-2.80,-0.24,-9.45,-9.24,-9.24
-8.94,-2.79,-0.28,-8.68,-8.68,-8.68
-9.22,-2.66,-0.22,-7.77,-7.70,-7.70
-9.33,-2.64,-0.30,-7.35,-7.00,-7.00
-9.06,-2.69,-0.35,-6.44,-5.88,-5.88
-9.23,-2.58,-0.23,-4.83,-4.62,-4.06
-9.55,-2.50,-0.11,-2.24,-2.24,-1.96
-9.15,-2.52,-0.26,0.35,0.35,0.35
-8.60,-2.69,-0.25,2.10,2.73,2.73
-9.06,-2.63,-0.05,5.88,5.88,6.30
-9.38,-2.43,0.16,9.73,9.73,9.73
-8.87,-2.29,0.23,11.20,11.20,11.20
-8.67,-2.23,0.25,11.41,11.41,11.41
-9.43,-2.16,0.46,11.62,11.62,11.62
-9.52,-2.12,0.63,11.55,11.55,11.55
-9.15,-2.23,0.68,10.71,10.71,10.57
-9.38,-2.40,0.63,8.61,8.33,8.33
-9.82,-2.69,0.74,7.35,7.28,7.28
-9.86,-2.79,0.94,6.58,6.58,6.65
-9.75,-2.82,1.04,5.53,5.53,5.32
-9.58,-2.90,0.78,2.17,2.17,2.17
-9.50,-2.73,0.82,-0.91,-0.91,-0.91
-9.13,-2.52,0.75,-4.83,-5.32,-5.32
-9.39,-2.36,0.67,-8.33,-9.94,-9.94
-9.49,-2.35,0.71,-13.02,-13.58,-14.70
-9.44,-2.36,0.69,-17.43,-17.99,-17.99
-9.45,-2.45,0.70,-22.05,-22.54,-22.54
-9.71,-2.58,0.77,-24.43,-24.57,-24.57
-9.63,-2.68,0.76,-25.20,-25.69,-25.69
-9.49,-2.78,0.71,-26.25,-26.39,-26.46
-9.42,-2.85,0.56,-26.95,-26.88,-26.88
-9.55,-3.01,0.56,-26.46,-25.90,-25.90
-9.44,-3.01,0.60,-24.43,-24.43,-24.43
-9.56,-3.02,0.43,-22.61,-22.33,-22.33
-9.77,-3.02,0.28,-21.49,-20.86,-20.86
-9.87,-2.91,0.33,-19.67,-19.04,-18.90
-9.57,-2.67,0.45,-17.64,-17.22,-17.22
-9.60,-2.53,0.19,-16.52,-16.52,-16.52
-9.59,-2.54,0.14,-16.03,-16.03,-16.03
-9.70,-2.45,0.17,-14.28,-14.28,-14.28
-9.70,-2.37,0.14,-12.46,-12.46,-12.46
-9.99,-2.36,0.13,-10.99,-10.99,-10.99
-10.11,-2.34,0.23,-8.89,-8.89,-8.89
-10.13,-2.40,0.29,-6.30,-6.30,-6.30
-10.16,-2.56,0.34,-3.29,-3.29,-3.29
-10.08,-2.79,0.38,2.52,2.52,2.52
-9.82,-2.88,0.35,7.63,7.63,7.63
-9.35,-2.96,0.36,12.88,12.88,12.88
-9.38,-2.96,0.41,17.71,17.71,17.71
-9.34,-3.09,0.52,23.59,24.22,24.22
-8.97,-3.10,0.55,28.21,28.84,28.84
-9.07,-3.11,0.56,31.85,32.34,32.34
-9.35,-3.13,0.66,36.12,36.12,36.61
-9.42,-3.01,0.74,38.43,38.43,38.57
-9.27,-2.77,0.79,39.06,39.13,39.13
-9.37,-2.48,0.82,38.78,38.64,38.50
-9.63,-1.96,0.99,33.60,33.11,33.11
-9.41,-1.62,0.96,25.06,25.06,25.06
-9.64,-1.59,0.99,17.85,17.85,17.85
-9.66,-1.63,1.01,13.37,11.83,11.83
-9.60,-1.65,1.05,7.49,7.49,7.49
-9.78,-2.43,0.73,-8.19,-8.19,-8.19
-9.76,-2.70,0.65,-9.80,-10.22,-10.22
-9.79,-3.10,0.45,-11.06,-11.13,-11.13
-9.94,-3.35,0.34,-10.57,-10.57,-10.50
-9.98,-3.45,0.33,-9.87,-9.59,-9.45
-10.25,-3.55,0.19,-8.47,-8.26,-8.26
-10.41,-3.56,0.05,-7.07,-7.07,-6.65
-10.33,-3.57,-0.10,-6.09,-6.09,-5.88
-10.40,-3.57,-0.31,-4.69,-4.69,-4.62
-10.57,-3.53,-0.44,-3.71,-3.71,-3.43
-10.57,-3.43,-0.56,-3.01,-3.01,-3.01
-10.36,-3.28,-0.75,-3.01,-3.01,-3.01
-10.09,-3.23,-0.81,-3.43,-3.43,-3.43
-9.88,-3.17,-0.88,-3.57,-3.57,-3.57
-9.86,-3.20,-0.87,-3.29,-3.29,-3.29
-9.55,-3.18,-0.87,-2.73,-2.52,-2.52
-9.49,-3.24,-0.83,-2.03,-1.54,-1.54
-9.59,-3.27,-0.78,-0.84,-0.56,-0.56
-9.70,-3.23,-0.73,-0.28,-0.28,-0.42
-9.83,-3.16,-0.69,-0.84,-0.84,-0.84
-9.89,-3.06,-0.65,-1.96,-2.17,-2.17
-9.90,-2.98,-0.65,-3.15,-3.08,-3.08
-9.97,-2.94,-0.65,-4.41,-4.90,-5.04
-10.23,-2.94,-0.62,-5.95,-5.95,-6.65
-10.35,-2.88,-0.58,-8.54,-8.54,-8.54
-10.30,-2.94,-0.58,-11.41,-11.41,-11.41
-10.21,-3.01,-0.59,-12.60,-12.88,-12.88
-10.38,-3.13,-0.59,-13.51,-13.72,-13.72
-10.64,-3.18,-0.66,-14.35,-14.35,-14.56
-10.68,-3.24,-0.81,-16.45,-16.45,-16.45
-10.67,-3.33,-0.97,-18.48,-18.55,-18.55
-10.66,-3.47,-1.15,-20.02,-20.02,-20.02
-10.72,-3.55,-1.30,-20.58,-20.58,-20.65
-10.80,-3.49,-1.41,-21.28,-21.28,-21.42
-10.75,-3.33,-1.57,-23.59,-23.59,-23.59
-10.42,-3.22,-1.67,-25.20,-25.20,-25.20
-10.39,-3.17,-1.67,-25.69,-25.69,-25.69
-10.31,-3.12,-1.71,-25.76,-25.76,-25.76
-10.10,-3.02,-1.71,-25.62,-25.62,-25.55
-9.93,-2.85,-1.52,-24.85,-24.85,-24.85
-9.83,-2.83,-1.29,-23.38,-22.82,-22.82
-9.80,-2.83,-1.12,-20.65,-20.65,-19.67
-9.52,-2.79,-1.05,-17.36,-17.36,-17.36
-9.33,-2.68,-0.96,-14.07,-14.07,-14.07
-9.18,-2.62,-0.77,-11.48,-11.48,-11.48
-9.18,-2.55,-0.61,-8.75,-8.75,-8.75
-8.94,-2.51,-0.44,-5.46,-4.97,-4.97
-8.50,-2.55,-0.35,-3.50,-2.66,-2.66
-8.63,-2.70,-0.24,0.63,0.63,0.63
-9.01,-2.77,-0.24,4.76,5.11,5.11
-9.07,-2.84,-0.23,6.79,7.00,7.00
-9.35,-3.10,-0.10,9.80,9.80,10.22
-9.84,-3.45,-0.10,13.23,13.23,13.79
-9.96,-3.63,-0.18,18.76,18.76,18.76
-10.10,-3.64,-0.13,21.91,21.91,21.91
-10.13,-3.45,0.05,25.13,25.13,25.13
-9.91,-3.26,0.05,26.53,26.53,26.53
-9.27,-3.09,0.04,26.53,26.53,26.53
-8.93,-2.99,0.15,25.62,25.48,25.48
-8.81,-2.97,0.22,24.71,24.57,24.57
-8.27,-2.70,0.24,21.98,21.98,21.56
-7.86,-2.66,0.31,17.85,17.85,17.43
-7.97,-2.79,0.39,14.70,14.70,14.35
-8.04,-3.14,0.41,12.81,12.81,12.46
-8.15,-3.22,0.36,9.31,9.31,9.31
-8.47,-3.10,0.37,6.58,6.23,6.23
-8.77,-3.31,0.40,4.41,4.41,4.27
-8.76,-3.48,0.33,2.24,2.24,2.10
-8.81,-3.56,0.34,2.66,2.66,2.66
-8.81,-3.79,0.24,5.32,5.67,5.67
-8.48,-4.09,0.15,9.03,9.59,9.59
-8.41,-4.09,0.11,12.32,13.93,13.93
-8.45,-4.13,0.24,16.73,17.36,18.69
-8.46,-4.32,0.39,22.05,22.82,24.22
-8.02,-4.57,0.41,29.40,29.40,30.17
-8.06,-4.41,0.41,35.70,35.70,53.62
-8.45,-4.10,0.57,38.85,38.85,38.85
-8.80,-2.82,0.67,31.15,29.82,29.82
-9.04,-2.64,0.62,25.69,24.92,24.92
-8.33,-2.64,0.48,18.69,18.69,18.69
-8.35,-2.78,0.73,10.29,10.29,10.29
-7.92,-2.88,0.64,6.86,6.86,6.86
-7.84,-2.92,0.43,2.66,2.17,2.17
-8.30,-3.01,0.52,-2.03,-2.03,-2.45
-9.11,-3.17,0.56,-4.55,-4.55,-4.97
-8.94,-3.41,0.53,-6.72,-6.72,-6.93
-9.11,-3.64,0.35,-8.33,-8.33,-8.33
-9.82,-3.91,0.45,-7.91,-7.91,-7.91
-9.46,-4.31,0.48,-5.60,-5.60,-5.60
-9.29,-4.62,0.45,-3.29,-3.29,-2.87
-9.21,-4.47,0.39,0.42,0.42,0.42
-8.90,-4.42,0.39,2.87,2.87,2.87
-8.75,-4.13,0.45,9.24,9.45,9.45
-8.87,-3.94,0.42,10.15,10.08,10.08
-9.08,-3.76,0.43,9.80,9.52,9.38
-8.76,-3.57,0.46,8.40,8.19,8.19
-8.78,-3.08,0.59,5.18,5.18,5.18
-9.38,-2.95,0.65,2.73,2.73,2.73
-9.44,-3.07,0.74,-0.14,-0.35,-0.35
-8.86,-3.06,0.68,-2.45,-2.80,-2.80
-8.76,-2.82,0.67,-4.27,-5.04,-5.04
-9.12,-2.85,0.71,-6.86,-6.86,-6.86
-8.69,-3.11,0.76,-8.82,-9.03,-9.03
-7.94,-3.20,0.66,-9.80,-9.80,-9.80
-7.88,-3.15,0.60,-10.08,-10.08,-10.08
-8.25,-2.85,0.83,-10.64,-10.64,-10.64
-8.48,-2.64,0.84,-12.39,-12.39,-12.39
-9.05,-2.50,0.69,-15.12,-15.12,-15.12
-9.05,-2.58,0.55,-17.92,-17.92,-17.92
-8.50,-2.75,0.67,-19.60,-19.67,-19.67
-9.11,-2.79,0.56,-20.16,-20.16,-20.09
-9.28,-2.90,0.42,-20.51,-20.51,-20.51
-8.68,-3.11,0.36,-20.23,-20.23,-20.23
-8.06,-3.27,0.34,-19.39,-19.39,-19.25
-8.28,-3.45,0.23,-16.66,-16.66,-16.66
-8.12,-3.64,0.13,-14.28,-13.86,-13.86
-7.67,-3.59,0.06,-10.92,-10.92,-10.64
-8.08,-3.35,0.15,-10.01,-9.80,-9.66
-8.68,-3.35,0.22,-9.38,-9.38,-9.31
-8.92,-3.53,0.08,-9.31,-9.31,-9.17
-9.18,-3.57,-0.09,-9.31,-9.31,-9.31
-9.79,-3.20,-0.09,-10.64,-10.78,-10.78
-9.60,-3.17,-0.07,-11.55,-12.11,-12.11
-9.37,-3.11,0.14,-12.81,-13.16,-13.16
-9.30,-3.01,0.21,-13.44,-13.44,-13.44
-9.79,-3.00,0.11,-13.86,-13.86,-13.93
-9.66,-3.07,0.45,-14.00,-14.00,-14.00
-9.52,-3.46,0.93,-7.21,-7.21,-6.65
-8.72,-3.38,1.02,-5.74,-5.74,-5.74
-8.49,-3.52,0.95,-5.32,-5.32,-5.32
-8.52,-3.57,0.90,-4.83,-4.62,-4.62
-8.72,-3.39,0.88,-4.13,-4.13,-4.13
-8.91,-3.19,0.93,-4.48,-4.48,-4.69
-9.20,-3.22,0.89,-5.74,-5.74,-5.74
-9.53,-3.12,0.83,-7.21,-7.21,-7.21
-9.36,-3.09,1.00,-7.91,-7.91,-7.91
-9.44,-3.02,1.06,-7.77,-7.77,-7.98
-9.60,-2.75,0.93,-8.19,-8.19,-8.19
-9.23,-2.55,0.91,-9.87,-9.87,-9.87
-8.74,-2.41,1.01,-11.27,-11.27,-11.27
-8.72,-2.46,0.86,-11.69,-11.55,-11.55
-9.03,-2.46,0.97,-10.78,-10.78,-10.78
-9.26,-2.56,1.16,-9.10,-9.10,-9.10
-9.42,-2.58,1.21,-7.28,-7.14,-7.14
-9.37,-2.61,1.18,-5.67,-5.25,-5.25
-9.53,-2.81,1.35,-3.15,-2.31,-2.31
-9.66,-2.93,1.30,3.57,3.57,3.57
-9.97,-2.86,1.32,5.60,5.60,5.60
-9.98,-2.90,1.38,6.51,6.51,6.51
-9.51,-2.92,1.30,7.00,7.00,7.00
-9.49,-2.89,1.35,7.42,7.49,7.49
-9.95,-2.94,1.44,7.63,7.63,7.70
-10.05,-2.96,1.56,7.49,7.49,7.49
-9.71,-3.14,1.57,6.37,6.37,6.37
-9.49,-3.33,1.54,5.46,5.46,5.46
-10.18,-3.61,1.58,5.67,5.67,5.67
-10.35,-3.68,1.75,5.95,5.95,5.95
-9.77,-3.68,1.68,4.55,4.27,4.27
-9.49,-3.75,1.52,1.75,1.54,1.54
-9.61,-3.85,1.36,-0.28,-0.28,-0.56
-9.58,-3.90,1.20,-2.80,-3.01,-3.01
-9.45,-3.86,1.11,-5.60,-6.09,-6.09
-9.73,-3.87,1.00,-9.52,-9.52,-9.73
-10.28,-4.13,0.97,-11.62,-11.62,-11.90
-10.55,-4.29,0.83,-13.79,-13.79,-13.79
-10.69,-4.34,0.70,-14.84,-14.84,-14.84
-10.67,-4.32,0.53,-15.75,-15.75,-15.75
-10.54,-4.39,0.39,-15.82,-15.82,-15.61
-10.24,-4.41,0.24,-14.70,-14.70,-14.56
-9.86,-4.33,0.04,-13.23,-13.23,-12.81
-9.52,-4.13,-0.19,-10.85,-10.85,-10.85
-9.17,-4.03,-0.28,-8.96,-8.96,-8.96
-9.04,-3.93,-0.30,-7.35,-6.72,-6.72
-9.06,-3.88,-0.27,-4.76,-4.76,-3.99
-9.14,-3.99,-0.17,-1.61,-1.61,-0.77
-9.30,-4.15,-0.09,5.88,5.88,5.88
-9.42,-4.20,-0.00,10.71,10.71,10.71
-9.40,-4.28,-0.01,13.23,14.14,14.14
-9.54,-4.33,-0.03,17.29,17.29,17.29
-9.66,-4.27,-0.03,19.74,19.74,19.74
-9.72,-4.20,-0.02,21.00,21.42,21.42
-9.67,-3.98,-0.01,22.19,22.12,22.12
-9.71,-3.62,0.01,21.91,21.91,21.84
-9.62,-3.32,0.05,20.93,20.44,20.30
-10.35,-2.99,0.19,12.74,12.74,12.74
-10.87,-2.86,0.22,9.24,9.24,9.24
-11.26,-3.10,0.19,3.85,3.85,3.85
-11.38,-3.25,0.16,2.59,2.31,2.31
-11.22,-3.46,0.08,1.54,1.54,1.33
-11.22,-3.59,0.05,0.70,0.70,0.70
-11.47,-3.57,0.06,-0.42,-0.42,-0.42
-11.41,-3.50,-0.16,-1.47,-1.75,-1.75
-10.86,-3.32,-0.40,-3.15,-3.50,-3.50
-10.64,-3.26,-0.60,-5.53,-5.53,-5.67
-10.36,-3.14,-0.67,-7.21,-7.77,-7.77
-10.22,-3.01,-0.73,-10.08,-10.08,-10.08
-9.98,-2.82,-0.65,-12.81,-12.81,-12.81
-9.67,-2.84,-0.62,-14.07,-14.07,-14.07
-9.38,-2.83,-0.57,-14.14,-13.93,-13.93
-8.93,-2.72,-0.57,-13.51,-13.16,-13.16
-8.45,-2.73,-0.54,-12.39,-11.76,-11.76
-8.64,-2.74,-0.43,-10.50,-10.15,-9.52
-8.54,-2.76,-0.38,-7.77,-7.49,-7.49
-8.46,-2.67,-0.48,-4.55,-4.55,-4.55
-8.56,-2.53,-0.47,-1.96,-1.96,-1.96
-8.90,-2.58,-0.38,1.05,1.05,1.05
-9.14,-2.64,-0.42,5.25,5.25,5.25
-8.92,-2.57,-0.56,7.07,7.07,7.42
-8.63,-2.56,-0.67,8.33,8.33,8.68
-8.76,-2.58,-0.56,10.43,10.43,10.43
-8.69,-2.73,-0.63,12.04,12.04,11.97
-8.35,-2.79,-0.68,12.25,12.25,12.25
-8.45,-2.71,-0.66,12.11,11.90,11.83
-8.99,-2.75,-0.67,11.83,11.83,11.83
-9.48,-2.76,-0.71,11.69,11.69,11.76
-9.41,-2.72,-0.70,10.71,10.71,10.71
-9.37,-2.58,-0.64,9.38,9.38,9.24
-9.23,-2.58,-0.63,8.47,8.47,8.47
-8.71,-2.79,-0.60,7.63,7.49,7.49
-8.46,-2.87,-0.56,6.58,6.51,6.51
-8.66,-2.75,-0.33,4.97,4.97,4.69
-7.37,-2.93,-0.29,3.85,3.85,3.78
-8.28,-3.11,-0.26,2.80,2.80,2.80
-8.72,-3.11,-0.13,2.73,2.73,2.73
-8.41,-3.67,0.12,7.07,7.07,7.07
-8.85,-3.76,0.43,16.31,16.31,16.31
-8.46,-3.72,0.38,21.77,22.26,22.26
-8.65,-3.22,0.59,27.44,27.44,27.44
-8.46,-3.13,0.52,28.07,28.07,28.07
-8.25,-3.12,0.60,28.00,28.00,28.00
-8.66,-3.04,0.61,26.88,26.88,26.88
-8.54,-3.03,0.59,25.48,25.48,25.48
-8.56,-2.95,0.72,21.98,21.98,21.98
-9.00,-3.07,0.96,19.04,19.04,19.04
-8.83,-3.08,0.98,17.01,16.31,16.31
-8.50,-2.90,0.81,14.07,14.07,13.09
-8.90,-2.70,0.82,8.82,8.82,8.82
-9.47,-2.75,0.82,4.41,4.41,4.41
-8.95,-2.71,0.81,0.56,-0.77,-0.77
-8.76,-2.59,0.59,-5.25,-5.81,-5.81
-9.01,-2.63,0.60,-8.54,-10.01,-10.01
-9.09,-2.93,0.61,-11.90,-12.74,-12.74
-9.05,-3.03,0.60,-14.70,-14.77,-14.77
-9.19,-2.90,0.51,-17.85,-17.85,-17.85
-9.20,-3.18,0.53,-17.78,-17.50,-17.50
-9.11,-3.52,0.48,-16.38,-16.38,-15.75
-9.35,-3.39,0.72,-9.03,-9.03,-9.03
-8.76,-3.33,0.65,-6.44,-6.44,-6.44
-9.03,-3.26,0.43,-4.69,-4.27,-4.27
-9.37,-3.26,0.66,-1.61,-1.61,-1.61
-8.73,-3.45,0.64,3.50,4.34,4.34
-9.00,-3.58,0.50,6.44,6.44,6.44
-8.30,-3.89,0.70,11.76,11.76,11.76
-7.92,-3.75,0.58,12.18,12.04,12.04
-8.83,-3.25,0.70,10.85,10.29,10.29
-8.50,-2.81,0.82,7.28,7.28,6.51
-7.59,-2.52,0.56,-0.21,-0.21,-0.98
-7.69,-2.32,0.52,-7.49,-7.49,-8.33
-8.34,-2.34,0.66,-12.18,-12.88,-12.88
-7.97,-2.48,0.56,-18.69,-18.69,-18.69
-8.27,-2.68,0.38,-25.90,-25.90,-25.90
-8.90,-2.72,0.38,-27.72,-27.72,-27.86
-8.24,-2.77,0.11,-28.56,-28.56,-28.56
-7.61,-2.79,0.05,-28.63,-28.63,-28.63
-8.05,-2.85,0.11,-26.88,-26.88,-26.88
-8.90,-2.86,0.09,-23.31,-23.31,-23.31
-8.38,-2.95,0.06,-20.09,-20.09,-20.09
-8.17,-3.11,-0.05,-15.68,-15.68,-15.19
-8.17,-3.25,-0.14,-10.01,-10.01,-10.01
-8.87,-3.35,-0.10,-5.46,-5.46,-5.46
-9.01,-3.37,-0.05,1.96,1.96,1.96
-9.22,-3.54,-0.15,5.46,5.95,5.95
-9.57,-3.77,-0.07,10.99,10.99,11.62
-9.98,-3.80,-0.11,15.12,15.12,15.54
-10.22,-3.65,0.02,19.88,19.88,19.88
-10.12,-3.41,-0.03,21.14,21.14,21.14
-9.50,-3.31,-0.14,20.23,20.23,20.23
-9.43,-3.18,-0.10,17.85,17.85,17.85
-9.79,-3.11,0.07,15.89,15.89,15.89
-9.74,-3.00,0.16,13.65,12.81,12.81
-9.70,-2.77,0.12,10.15,8.40,8.40
-9.85,-2.58,0.20,5.39,3.57,3.57
-9.88,-2.41,0.36,0.70,0.07,-1.12
-9.73,-2.45,0.54,-5.32,-5.32,-5.88
-10.10,-2.52,0.60,-10.92,-10.92,-10.92
-10.40,-2.53,0.65,-14.07,-15.05,-15.05
-10.35,-2.45,0.52,-18.27,-18.27,-19.25
-10.29,-2.43,0.37,-22.47,-22.47,-22.47
-10.75,-2.44,0.43,-25.97,-25.97,-25.97
-10.84,-2.53,0.35,-27.86,-27.86,-27.86
-10.45,-2.75,0.10,-29.40,-29.75,-29.75
-10.29,-3.05,-0.18,-30.52,-30.52,-30.52
-9.98,-3.43,-0.32,-29.33,-29.05,-29.05
-9.98,-3.54,-0.38,-26.39,-25.83,-25.83
-10.35,-3.72,-0.41,-21.84,-21.35,-21.35
-10.61,-3.90,-0.36,-17.64,-15.26,-15.26
-10.25,-3.86,-0.42,-10.92,-8.33,-8.33
-10.24,-3.54,-0.59,-4.27,-3.57,-2.10
-10.29,-3.21,-0.58,1.19,1.96,3.15
-10.10,-2.92,-0.48,6.79,6.79,6.79
-9.88,-2.65,-0.47,9.73,10.01,10.01
-10.23,-2.45,-0.44,11.34,11.34,11.62
-10.44,-2.36,-0.29,12.60,12.81,12.81
-10.44,-2.42,-0.15,13.37,13.37,13.37
-10.43,-2.50,-0.05,13.86,13.86,13.86
-10.27,-2.66,0.13,15.54,15.54,15.54
-10.01,-2.75,0.22,17.22,17.22,17.22
-9.75,-2.72,0.27,17.92,18.20,18.20
-9.50,-2.67,0.33,18.48,18.48,18.55
-9.25,-2.68,0.35,18.34,18.34,18.41
-9.02,-2.58,0.41,17.92,17.92,17.85
-9.11,-2.45,0.48,16.38,16.38,16.38
-9.35,-2.36,0.50,14.98,14.28,14.28
-9.53,-2.35,0.52,12.39,12.39,11.62
-9.53,-2.34,0.50,9.45,9.45,9.45
-9.59,-2.33,0.54,5.88,5.88,5.88
-9.74,-2.34,0.51,3.36,3.36,3.36
-9.74,-2.34,0.46,0.63,0.63,0.63
-9.70,-2.44,0.44,-1.40,-1.96,-1.96
-9.57,-2.51,0.39,-3.36,-3.36,-3.36
-9.44,-2.61,0.39,-4.83,-4.83,-4.83
-9.46,-2.69,0.32,-6.44,-6.51,-6.51
-9.43,-2.81,0.30,-6.93,-7.00,-7.00
-9.34,-2.95,0.29,-6.93,-6.93,-6.72
-9.34,-3.09,0.30,-6.23,-6.23,-5.88
-9.73,-3.27,0.30,-4.69,-4.69,-4.69
-10.17,-3.55,0.26,-2.52,-2.52,-2.52
-10.42,-3.65,0.26,-1.19,-1.19,-1.05
-10.75,-3.76,0.13,1.12,1.12,1.12
-11.13,-3.93,0.08,3.22,3.22,3.22
-11.63,-3.98,0.06,5.11,5.11,5.11
-12.12,-3.87,-0.04,6.93,6.93,6.93
-12.30,-3.68,-0.09,7.00,7.07,7.07
-12.11,-3.44,-0.07,6.30,6.30,6.02
-11.75,-3.18,0.02,4.76,4.76,4.76
-11.38,-2.95,0.07,2.94,2.94,2.94
-11.14,-2.68,0.13,0.42,-0.35,-0.35
-10.91,-2.43,0.17,-2.73,-3.64,-3.64
-10.82,-2.24,0.09,-6.72,-6.72,-7.00
-10.87,-2.21,0.03,-9.87,-9.87,-9.87
-10.70,-2.12,-0.10,-14.00,-14.00,-14.00
-10.41,-2.03,-0.13,-16.31,-16.66,-16.66
-10.26,-1.96,-0.23,-19.67,-19.67,-19.88
-10.02,-2.01,-0.18,-20.86,-21.21,-21.28
-9.70,-1.98,-0.08,-21.56,-21.35,-21.35
-9.54,-2.04,-0.00,-20.23,-20.23,-20.02
-9.19,-2.16,-0.02,-18.62,-18.62,-18.27
-9.09,-2.25,0.09,-15.26,-15.26,-15.26
-9.05,-2.35,0.21,-11.27,-11.27,-11.27
-8.95,-2.47,0.26,-7.77,-6.58,-6.58
-8.66,-2.59,0.37,-2.73,-2.73,-2.73
-8.48,-2.75,0.45,4.41,4.41,4.41
-8.52,-2.80,0.54,16.94,16.94,16.94
-8.67,-2.66,0.59,23.10,23.66,23.66
-8.89,-2.51,0.76,26.53,28.00,28.00
-9.04,-2.26,0.91,30.66,30.66,30.66
-8.24,-1.88,0.81,31.01,30.66,30.66
-8.50,-1.68,0.97,28.91,28.91,28.91
-8.37,-1.63,1.05,24.15,24.15,24.15
-7.90,-1.62,1.03,18.83,18.83,18.83
-7.93,-1.67,1.08,13.16,10.78,10.78
-8.48,-1.89,0.99,7.21,6.44,4.97
-9.12,-2.08,1.12,0.35,0.35,0.35
-8.91,-2.44,1.14,-5.95,-5.95,-5.95
-8.52,-2.74,1.03,-9.03,-9.38,-9.38
-8.57,-3.16,1.09,-10.71,-10.78,-10.78
-8.57,-3.68,1.09,-11.27,-11.06,-11.06
-8.65,-4.00,1.04,-9.73,-9.45,-9.45
-8.56,-4.23,1.00,-7.70,-7.70,-7.49
-8.69,-4.27,0.97,-4.76,-4.76,-4.76
-9.14,-4.45,0.97,-2.10,-2.10,-2.10
-9.17,-4.75,0.85,3.99,3.99,3.99
-8.74,-4.93,0.72,8.96,8.96,8.96
-9.15,-4.85,0.83,22.12,22.68,22.68
-8.56,-4.71,0.55,26.04,26.53,26.53
-8.60,-4.35,0.33,29.47,29.47,29.61
-8.46,-3.91,0.44,30.38,30.45,30.45
-8.91,-3.86,0.43,30.80,30.80,30.73
-8.82,-3.67,0.31,29.89,29.89,29.61
-8.76,-3.35,0.37,28.35,28.35,27.16
-8.60,-3.03,0.43,24.71,24.71,24.15
-8.66,-2.91,0.30,19.67,18.97,18.97
-8.44,-2.70,0.24,13.51,13.51,10.92
-8.28,-2.54,0.07,6.79,6.79,6.02
-7.91,-3.01,0.26,0.28,0.28,-0.14
-8.66,-3.31,0.41,-1.68,-2.31,-2.52
-8.80,-3.35,0.46,-3.36,-3.36,-3.85
-9.28,-3.42,0.54,-4.97,-4.97,-4.97
-9.19,-3.52,0.55,-5.95,-6.16,-6.16
-9.40,-3.49,0.61,-6.37,-6.37,-6.37
-9.55,-3.50,0.69,-5.74,-5.74,-5.74
-9.36,-3.45,0.80,-4.55,-4.55,-4.55
-9.02,-3.39,0.75,-3.57,-3.57,-3.57
-9.23,-3.53,0.83,-1.05,-1.05,-0.70
-8.68,-3.61,0.88,1.68,2.10,2.10
-8.50,-3.47,0.78,3.43,3.71,3.71
-8.66,-3.52,0.80,5.18,5.18,5.25
-8.90,-3.51,0.85,6.09,6.09,5.88
-9.02,-3.31,0.76,5.60,5.60,5.60
-8.91,-3.22,0.68,3.85,3.85,3.85
-8.75,-3.40,0.64,1.68,1.68,1.68
-8.34,-3.54,0.73,-1.40,-1.40,-1.40
-8.36,-3.35,0.73,-4.41,-4.41,-4.41
-8.30,-3.01,0.66,-7.77,-9.10,-9.10
-8.37,-2.84,0.50,-13.93,-13.93,-15.47
-8.28,-2.80,0.46,-20.37,-20.37,-20.37
-8.08,-2.84,0.51,-27.58,-27.58,-27.58
-7.89,-2.98,0.38,-32.27,-32.27,-32.27
-8.16,-3.14,0.19,-53.55,-36.05,-36.05
-7.93,-3.26,0.29,-38.99,-39.48,-39.48
-7.58,-3.24,0.27,-42.28,-42.28,-42.63
-8.17,-3.24,-0.04,-44.52,-44.87,-44.87
-7.90,-3.43,-0.28,-47.81,-47.81,-47.81
-7.37,-3.61,-0.35,-50.82,-50.82,-50.82
-7.92,-3.77,-0.21,-51.24,-51.24,-51.24
-8.71,-3.90,-0.35,-50.26,-50.26,-50.26
-8.53,-4.01,-0.50,-49.28,-49.28,-49.28
-9.06,-3.93,-0.18,-46.55,-46.55,-46.55
-9.77,-3.84,-0.57,-40.39,-39.97,-39.97
-8.97,-3.90,-0.80,-34.51,-33.88,-33.88
-8.65,-3.83,-0.67,-28.42,-27.58,-27.58
-9.39,-3.72,-0.55,-22.82,-19.74,-19.74
-9.30,-3.76,-0.51,-14.70,-13.79,-11.97
-8.61,-3.62,-0.49,-6.16,-6.16,-5.46
-8.54,-3.57,-0.32,2.94,2.94,2.94
-8.66,-3.79,-0.18,9.94,9.94,9.94
-8.46,-3.95,0.00,19.25,19.25,19.25
-8.60,-4.00,0.12,25.48,25.48,25.48
-8.93,-4.08,0.19,31.99,32.62,32.62
-8.98,-4.06,0.17,34.93,36.05,36.05
-9.22,-4.10,0.20,37.38,37.52,37.52
-9.36,-3.95,0.14,37.80,37.80,37.52
-9.27,-3.54,0.09,35.56,35.56,35.00
-9.36,-3.21,0.19,28.63,28.63,28.63
-9.34,-2.95,0.22,22.26,22.26,22.26
-9.20,-2.76,0.09,13.23,12.11,12.11
-9.51,-2.45,0.16,6.72,5.67,3.64
-10.40,-2.35,0.43,-13.02,-13.02,-13.02
-10.44,-2.37,0.25,-19.11,-19.11,-20.93
-10.76,-2.48,0.34,-25.48,-25.48,-25.48
-10.72,-2.47,0.45,-31.01,-31.01,-31.01
-10.54,-2.52,0.38,-34.23,-35.14,-35.14
-10.51,-2.78,0.32,-37.31,-37.31,-37.66
-10.20,-3.15,0.26,-38.29,-38.29,-38.29
-10.07,-3.51,0.07,-37.31,-37.31,-36.68
-10.16,-3.99,0.07,-33.60,-33.60,-33.60
-10.30,-4.33,0.20,-25.97,-25.97,-25.97
-10.26,-4.43,0.13,-21.07,-21.07,-21.07
-10.34,-4.47,0.01,-13.44,-13.44,-13.44
-10.44,-4.51,-0.05,-8.61,-7.00,-7.00
-10.19,-4.51,-0.10,-2.31,-2.31,-2.31
-10.11,-4.35,-0.23,3.71,4.27,4.27
-10.14,-4.20,-0.33,7.63,7.63,8.12
-10.11,-4.13,-0.33,11.34,11.34,11.34
-9.97,-4.10,-0.30,15.19,15.19,15.19
-9.93,-4.03,-0.24,17.15,17.57,17.57
-9.87,-3.90,-0.16,19.95,19.95,19.95
-9.71,-3.79,-0.10,21.28,21.35,21.35
-9.53,-2.48,-0.06,21.21,21.21,21.21
-9.41,-3.63,-0.03,20.44,20.23,20.23
-9.34,-3.68,0.00,19.53,19.11,19.11
-9.31,-3.76,0.07,18.34,18.34,17.92
-9.51,-3.83,0.15,16.87,16.87,16.87
-9.65,-3.85,0.18,14.98,14.98,14.98
-9.71,-3.86,0.26,13.51,13.09,13.09
-9.81,-3.89,0.39,10.92,10.92,10.92
-9.87,-3.95,0.47,9.59,9.10,9.10
-9.80,-3.87,0.56,7.42,7.42,7.28
-9.78,-3.83,0.65,5.25,5.25,5.11
-9.94,-3.77,0.75,3.85,3.85,3.85
-10.12,-3.82,0.80,2.59,2.45,2.45
-10.26,-3.98,0.85,2.38,2.38,2.38
-10.64,-4.08,0.81,2.80,2.87,3.08
-11.40,-4.27,0.81,3.71,3.85,4.13
-12.09,-4.47,0.85,5.32,5.53,5.53
-12.29,-4.42,0.92,8.26,8.54,8.54
-11.91,-4.35,0.92,9.80,10.08,10.50
-11.31,-4.31,0.85,11.76,11.76,11.76
-10.99,-4.32,0.72,13.09,13.23,13.23
-10.88,-4.12,0.72,13.93,14.00,14.00
-10.74,-3.69,0.71,13.72,13.30,13.30
-10.48,-3.36,0.71,11.62,11.62,11.62
-10.05,-3.15,0.74,9.59,9.59,9.59
-9.73,-2.99,0.80,8.47,8.47,8.47
-9.69,-2.77,0.85,8.19,8.12,8.12
-9.55,-2.68,0.91,8.26,8.26,8.33
-9.24,-2.81,1.11,8.89,8.89,8.89
-8.82,-2.88,1.18,10.64,10.85,10.85
-8.63,-2.94,1.14,13.09,13.65,13.65
-8.29,-2.98,1.20,16.24,16.59,16.59
-8.18,-3.11,1.29,18.90,19.18,19.18
-8.16,-3.14,1.30,21.35,21.35,21.77
-8.28,-3.00,1.34,23.31,23.31,23.38
-8.56,-2.91,1.34,23.73,23.73,23.73
-8.86,-2.82,1.35,23.03,23.03,22.61
-9.06,-2.77,1.34,20.79,20.65,20.65
-8.76,-2.73,1.09,18.48,18.06,18.06
-8.19,-2.79,0.85,14.35,14.35,13.93
-7.88,-2.93,0.77,11.34,11.34,11.34
-7.97,-3.09,0.64,9.10,9.03,9.03
-7.95,-3.41,0.54,9.03,9.17,9.17
-7.83,-3.51,0.32,10.36,10.36,10.57
-7.26,-3.69,0.16,11.76,11.76,11.90
-7.58,-3.83,0.33,15.26,15.26,15.26
-8.04,-3.74,0.28,17.92,18.62,18.62
-7.57,-3.55,0.18,19.81,19.88,19.88
-7.51,-3.36,0.36,20.02,20.02,19.95
-8.01,-2.86,0.55,18.83,18.83,18.83
-8.06,-2.50,0.52,15.96,15.96,15.54
-8.41,-2.49,0.67,11.27,11.27,11.27
-8.36,-2.54,0.66,8.82,8.82,8.82
-8.12,-2.83,0.82,8.54,8.54,8.82
-9.01,-3.31,1.42,18.41,18.41,18.41
-8.50,-3.09,1.50,21.07,21.49,22.12
-8.40,-3.01,1.55,23.59,23.94,23.94
-8.79,-2.92,1.67,25.55,25.55,25.55
-8.94,-2.17,1.79,15.89,14.63,13.93
-9.19,-2.44,1.89,9.87,9.87,9.87
-9.19,-2.62,1.68,4.76,4.20,4.20
-8.96,-2.57,1.53,-0.21,-0.21,-0.21
-8.65,-2.40,1.31,-12.04,-12.67,-12.67
-9.27,-2.49,1.18,-18.34,-19.04,-19.04
-9.33,-2.66,1.15,-24.22,-24.22,-24.22
-8.65,-2.87,1.01,-27.93,-28.07,-28.07
-8.15,-3.01,0.76,-30.10,-30.10,-30.10
-8.68,-3.02,0.59,-31.29,-31.50,-31.50
-9.31,-3.14,0.58,-32.20,-32.20,-32.06
-9.25,-3.38,0.52,-32.27,-32.13,-32.13
-9.70,-3.89,0.31,-31.15,-30.94,-30.94
-9.60,-4.11,0.33,-28.77,-28.35,-28.35
-8.37,-4.04,-0.17,-21.35,-21.00,-21.00
-7.93,-4.21,-0.44,-11.62,-11.20,-11.20
-8.41,-3.22,-0.36,-7.56,-7.56,-7.56
-8.72,-2.93,-0.33,-8.26,-8.82,-8.82
-8.73,-2.66,-0.22,-12.67,-12.67,-12.67
-8.95,-2.59,-0.16,-13.58,-13.58,-13.58
-8.37,-2.65,-0.30,-15.89,-15.89,-15.89
-7.72,-2.79,-0.27,-17.71,-17.71,-17.71
-8.65,-2.75,-0.10,-18.27,-18.20,-18.20
-8.70,-2.90,-0.04,-18.13,-18.06,-18.06
-8.25,-3.02,-0.05,-19.39,-19.39,-19.53
-8.47,-3.02,0.18,-20.16,-20.16,-20.30
-8.40,-3.04,0.18,-20.51,-20.51,-20.51
-8.24,-3.19,0.05,-21.56,-21.56,-21.56
-8.69,-3.39,0.07,-22.05,-22.05,-22.05
-8.94,-3.67,0.18,-21.42,-21.42,-21.21
-9.11,-4.06,-0.05,-20.02,-19.74,-19.74
-9.38,-4.22,-0.07,-17.78,-17.43,-17.43
-9.83,-4.42,0.01,-15.47,-14.07,-14.07
-10.25,-4.94,0.11,-11.13,-10.36,-10.36
-10.48,-5.32,0.02,-3.22,-2.45,-2.45
-9.12,-5.13,-0.14,9.10,9.10,9.10
-8.62,-4.91,-0.19,13.23,13.23,13.23
-8.46,-4.62,-0.11,17.01,17.01,17.01
-8.21,-4.42,-0.05,18.27,18.55,18.55
-8.31,-4.37,0.10,19.67,19.95,20.30
-9.01,-4.32,0.40,22.12,22.12,22.12
-9.48,-4.32,0.55,23.80,23.80,24.08
-9.50,-4.14,0.56,24.43,24.43,24.43
-9.79,-4.00,0.57,23.87,23.87,23.87
-10.32,-3.99,0.86,23.52,23.52,23.52
-10.42,-3.84,1.02,21.49,21.49,21.49
-10.04,-3.66,1.00,18.27,18.27,18.27
-10.03,-3.41,0.97,15.68,14.07,14.07
-10.02,-3.09,1.10,11.27,10.64,9.45
-9.85,-2.80,1.34,5.95,5.04,5.04
-9.41,-2.68,1.48,-0.77,-1.54,-1.54
-9.31,-2.59,1.48,-9.24,-9.87,-9.87
-9.42,-2.65,1.60,-14.91,-15.40,-15.40
-9.68,-2.71,1.79,-19.11,-19.74,-19.74
-9.88,-2.66,1.86,-24.57,-24.57,-24.99
-9.89,-2.73,1.83,-27.72,-28.70,-28.70
-9.69,-2.81,1.69,-32.06,-32.06,-32.34
-9.75,-2.97,1.65,-33.60,-33.60,-33.74
-9.94,-3.11,1.67,-33.88,-33.88,-33.88
-10.16,-3.47,1.72,-32.97,-32.69,-32.69
-10.16,-3.70,1.76,-30.10,-30.10,-29.68
-9.97,-3.80,1.75,-27.30,-27.30,-26.81
-9.76,-3.97,1.74,-21.70,-21.70,-21.70
-9.44,-4.09,1.68,-18.06,-16.94,-16.94
-9.03,-4.19,1.55,-12.81,-12.81,-12.81
-8.82,-4.25,1.44,-7.84,-7.21,-7.21
-8.72,-4.38,1.43,-4.13,-2.24,-2.24
-8.81,-4.44,1.49,0.98,2.31,2.87
-8.88,-4.47,1.49,5.46,5.46,6.86
-8.88,-4.40,1.47,9.17,9.17,9.45
-8.84,-4.26,1.44,11.83,12.18,12.18
-8.85,-4.13,1.35,13.23,13.37,13.37
-9.08,-3.86,1.21,11.48,11.48,11.48
-9.15,-3.84,1.21,9.45,9.45,9.17
-9.35,-3.83,1.18,7.70,7.70,7.42
-9.57,-3.86,1.11,5.04,4.90,4.90
-9.52,-3.92,1.08,2.52,2.52,2.52
-9.38,-3.96,1.09,0.77,0.21,0.21
-9.32,-3.92,1.06,-1.19,-1.68,-1.68
-9.38,-3.95,1.02,-3.08,-3.08,-3.36
-9.38,-3.95,1.00,-5.04,-5.04,-5.04
-9.22,-3.94,0.96,-7.35,-7.35,-7.35
-9.01,-3.94,0.93,-9.73,-9.73,-9.73
-8.89,-3.95,0.89,-11.20,-11.20,-11.20
-8.92,-4.01,0.89,-12.18,-12.18,-12.18
-9.14,-4.15,0.89,-12.53,-12.53,-12.53
-9.38,-4.32,0.86,-12.60,-12.60,-12.60
-9.58,-4.45,0.79,-12.39,-12.39,-12.04
-10.05,-4.66,0.77,-11.13,-11.13,-11.13
-10.63,-4.80,0.67,-8.68,-8.68,-8.68
-11.14,-4.99,0.54,-6.79,-6.37,-6.37
-11.42,-5.17,0.39,-4.48,-4.48,-4.48
-11.26,-5.31,0.38,-1.89,-1.54,-1.54
-11.36,-5.39,0.43,0.91,1.47,1.47
-11.52,-5.36,0.49,5.18,5.18,5.18
-11.34,-5.26,0.48,8.40,8.40,8.54
-11.08,-5.13,0.45,10.15,10.15,10.15
-10.65,-4.94,0.36,12.04,12.25,12.25
-10.17,-4.70,0.22,13.23,13.30,13.30
-9.88,-4.57,0.03,13.86,13.86,13.79
-10.08,-4.38,-0.05,13.51,13.51,13.44
-10.26,-4.16,-0.01,12.88,12.74,12.74
-10.06,-3.88,0.20,11.34,11.34,11.20
-9.40,-3.68,0.36,10.29,10.29,10.08
-9.04,-3.57,0.42,9.24,9.24,9.24
-8.97,-3.53,0.45,9.24,9.24,9.24
-8.93,-3.49,0.70,9.10,9.10,9.03
-8.79,-3.37,0.85,7.63,7.63,7.63
-8.95,-3.34,0.89,6.51,6.09,6.09
-9.02,-3.43,0.94,5.04,4.90,4.90
-9.33,-3.34,1.30,3.36,3.36,3.15
-9.79,-3.04,1.57,1.61,0.98,0.70
-9.32,-3.06,1.64,-0.77,-0.77,-1.47
-8.57,-3.12,1.43,-3.43,-3.43,-3.71
-8.11,-3.19,1.25,-5.67,-5.67,-5.67
-7.87,-3.17,1.09,-7.28,-7.63,-7.63
-7.28,-3.11,0.76,-8.82,-8.82,-8.82
-6.87,-3.27,0.60,-10.29,-10.29,-10.29
-6.61,-3.37,0.53,-11.06,-11.06,-11.06
-6.90,-3.49,0.33,-11.06,-11.06,-11.06
-7.51,-3.76,0.26,-9.80,-9.80,-9.80
-8.21,-3.92,0.36,-7.77,-7.35,-7.35
-8.46,-4.05,0.29,-3.57,-3.57,-3.08
-7.79,-4.14,-0.12,-0.70,-0.70,-0.35
-7.48,-4.26,-0.26,2.31,2.31,2.80
-8.19,-4.54,-0.26,10.36,10.36,10.99
-8.46,-4.60,-0.16,18.20,18.20,18.83
-7.96,-4.60,-0.20,23.45,24.01,24.01
-7.97,-5.07,0.00,36.96,36.96,36.96
-7.74,-5.02,-0.03,49.84,50.89,50.89
-8.26,-4.85,0.05,52.71,52.71,53.06
-8.74,-4.44,0.16,53.48,53.48,53.48
-8.37,-3.61,0.37,47.04,46.48,46.48
-8.81,-3.54,0.45,42.28,42.28,41.51
-8.17,-3.26,0.36,33.95,33.95,33.95
-8.00,-3.29,0.41,26.81,26.81,26.81
-7.80,-3.46,0.47,21.77,20.16,20.16
-8.09,-3.62,0.45,15.54,15.54,14.00
-8.26,-3.67,0.45,9.31,9.31,7.70
-8.42,-3.49,0.54,1.05,1.05,1.05
-8.44,-3.50,0.37,-6.09,-6.93,-6.93
-8.85,-3.66,0.30,-11.62,-11.62,-11.62
-8.60,-3.87,0.26,-20.16,-20.37,-20.65
-8.59,-4.15,0.41,-19.60,-19.60,-19.60
-7.49,-4.33,0.14,-16.10,-16.10,-16.10
-7.93,-4.08,0.29,-10.71,-10.22,-10.22
-8.18,-4.07,0.42,-7.49,-7.14,-7.14
-8.09,-4.10,0.18,-4.69,-4.69,-4.34
-8.21,-4.15,0.30,-2.73,-2.73,-2.73
-8.91,-4.20,0.60,2.10,2.10,2.10
-8.15,-4.20,0.10,4.34,4.34,4.34
-8.48,-4.47,0.49,5.53,5.53,5.53
-8.25,-4.53,0.66,7.56,7.56,7.56
-8.05,-4.55,0.46,8.96,8.96,8.96
-8.04,-4.56,0.54,9.66,9.66,9.66
-8.16,-4.44,0.69,10.22,10.22,10.22
-8.80,-4.32,0.84,10.92,11.06,11.06
-8.82,-4.18,0.83,10.99,10.36,10.36
-8.59,-3.92,0.79,9.10,7.91,7.91
-9.03,-3.55,0.86,5.74,5.32,5.32
-9.48,-3.49,1.04,1.54,1.19,1.19
-9.18,-3.68,0.99,-1.40,-1.75,-1.75
-8.36,-3.88,0.96,-4.13,-4.41,-4.41
-8.10,-3.92,1.01,-5.81,-5.95,-5.95
-9.74,-4.04,1.03,-6.30,-6.30,-6.30
-8.72,-4.14,1.04,-6.44,-6.44,-6.72
-8.26,-4.25,1.09,-6.93,-7.21,-7.21
-8.09,-4.38,1.18,-7.28,-7.14,-7.28
-8.10,-4.41,1.12,-7.14,-7.14,-7.28
-8.30,-4.31,0.95,-7.56,-7.56,-8.19
-8.29,-4.14,0.90,-9.38,-9.38,-10.29
-8.12,-4.17,0.98,-12.60,-12.60,-12.60
-8.42,-4.36,0.85,-15.47,-15.75,-15.75
-8.83,-4.34,0.78,-18.48,-18.48,-18.62
-8.99,-4.17,0.77,-20.44,-20.44,-20.79
-9.15,-4.40,0.46,-26.11,-26.60,-26.60
-9.07,-4.36,0.52,-27.86,-27.86,-28.07
-8.85,-4.36,0.39,-29.33,-29.33,-29.33
-8.98,-4.47,0.35,-29.82,-29.96,-29.96
-8.78,-4.39,0.38,-29.26,-29.26,-29.12
-8.70,-4.45,0.38,-27.44,-27.44,-27.44
-8.55,-4.51,0.23,-26.39,-26.04,-26.04
-8.98,-4.67,0.20,-24.22,-24.22,-23.87
-9.19,-4.72,0.30,-20.51,-20.51,-20.51
-9.19,-4.70,0.29,-18.06,-18.06,-18.06
-9.28,-4.83,0.14,-15.05,-15.05,-14.42
-9.19,-4.95,-0.00,-12.18,-12.18,-12.18
-9.37,-4.99,0.00,-7.91,-7.91,-7.91
-9.27,-5.00,0.03,-4.55,-4.55,-4.55
-9.41,-5.10,-0.03,-1.54,-1.54,-1.54
-9.29,-5.25,-0.03,1.12,1.12,1.12
-9.08,-5.29,-0.11,4.48,4.90,4.90
-9.08,-5.36,-0.22,7.14,7.63,7.63
-8.92,-5.43,-0.28,9.24,10.36,10.36
-8.78,-5.47,-0.30,12.60,12.81,12.81
-8.68,-5.42,-0.37,14.42,14.56,14.56
-8.83,-5.38,-0.38,15.19,15.54,15.54
-8.96,-5.30,-0.33,15.96,15.96,15.96
-9.05,-5.27,-0.35,15.96,15.96,15.96
-9.07,-5.28,-0.33,15.82,15.47,15.61
-9.16,-5.30,-0.30,15.26,15.26,15.12
-9.09,-5.30,-0.26,14.63,14.63,14.63
-8.91,-5.11,-0.26,13.44,13.44,13.30
-8.86,-4.97,-0.25,12.11,12.11,11.83
-8.52,-4.98,-0.14,10.22,10.22,10.22
-8.19,-4.99,-0.10,9.52,9.38,9.38
-8.05,-4.91,-0.04,8.96,8.96,8.68
-8.32,-4.87,0.11,8.40,8.40,8.40
-8.42,-4.81,0.27,6.51,6.51,6.51
-8.26,-4.77,0.32,4.13,4.13,4.13
-8.32,-4.77,0.31,2.73,2.38,2.38
-8.37,-4.78,0.39,1.47,1.47,1.19
-8.28,-4.81,0.46,0.42,0.42,0.42
-8.37,-4.77,0.49,-1.40,-1.40,-1.40
-8.48,-4.70,0.45,-3.36,-3.36,-3.36
-8.94,-5.23,0.40,-7.42,-7.42,-7.56
-9.04,-5.37,0.25,-8.40,-8.40,-8.40
-9.07,-5.41,0.16,-9.38,-9.38,-9.38
-9.06,-5.53,0.09,-9.80,-9.87,-9.87
-9.26,-5.73,0.05,-9.38,-9.17,-9.17
-9.26,-5.80,-0.06,-7.63,-7.63,-7.35
-9.15,-5.78,-0.17,-6.16,-6.16,-6.09
-9.08,-5.72,-0.23,-5.39,-5.04,-4.90
-9.06,-5.75,-0.30,-4.06,-4.06,-3.43
-9.01,-5.73,-0.38,-2.52,-2.52,-2.03
-8.48,-5.58,-0.57,2.24,2.24,2.24
-8.30,-5.47,-0.71,3.15,3.29,3.29
-8.12,-5.36,-0.74,3.43,3.50,3.50
-8.10,-5.29,-0.75,3.43,3.43,3.43
-8.11,-5.17,-0.75,3.36,3.36,3.15
-8.23,-5.15,-0.72,2.73,2.73,2.59
-8.40,-5.07,-0.73,1.75,1.68,1.68
-8.44,-5.05,-0.73,0.91,0.91,0.91
-8.39,-5.05,-0.72,-0.07,-0.07,-0.28
-8.34,-5.02,-0.67,-0.56,-0.56,-0.63
-8.24,-5.02,-0.63,-0.91,-0.91,-0.91
-8.04,-5.08,-0.63,-1.26,-1.26,-1.26
-8.09,-5.07,-0.61,-2.17,-2.17,-2.17
-8.28,-5.16,-0.58,-2.45,-2.45,-2.45
-8.53,-5.32,-0.56,-2.52,-2.52,-2.52
-8.77,-5.49,-0.54,-2.31,-2.38,-2.38
-9.34,-5.80,-0.50,-2.17,-2.17,-2.17
-9.94,-6.13,-0.50,-1.54,-1.54,-1.54
-10.75,-6.52,-0.44,-0.63,-0.63,-0.14
-11.45,-6.92,-0.36,1.26,1.26,1.26
-11.79,-7.23,-0.42,3.43,3.43,3.43
-11.69,-7.24,-0.42,4.48,4.48,4.83
-11.43,-6.96,-0.47,5.39,5.32,5.32
-11.11,-6.58,-0.43,4.69,4.69,4.55
-10.78,-6.05,-0.41,2.66,2.66,2.66
-10.12,-5.48,-0.37,-2.03,-2.03,-2.03
-9.41,-5.28,-0.13,-5.60,-5.60,-5.60
-9.56,-4.89,0.06,-8.26,-8.26,-8.26
-9.63,-4.75,0.07,-13.02,-13.58,-13.58
-9.59,-4.64,0.15,-16.45,-17.50,-17.50
-9.59,-4.60,0.16,-20.58,-20.58,-20.58
-9.44,-4.78,0.07,-22.68,-22.68,-22.68
-9.39,-4.92,-0.05,-22.89,-22.89,-22.89
-9.16,-4.72,-0.17,-23.17,-23.17,-23.17
-8.50,-4.57,-0.22,-23.59,-23.59,-23.59
-8.39,-4.28,-0.16,-23.66,-23.66,-23.66
-8.37,-4.11,-0.08,-23.31,-23.17,-23.17
-8.27,-3.91,-0.17,-22.61,-22.61,-22.54
-8.05,-3.73,-0.14,-22.19,-22.19,-22.19
-7.98,-3.74,-0.11,-21.35,-21.21,-21.21
-8.40,-3.88,0.07,-18.83,-18.41,-18.41
-8.49,-3.95,-0.02,-15.68,-15.26,-15.26
-8.30,-3.89,-0.14,-12.74,-12.74,-11.76
-8.97,-3.97,0.23,-6.09,-6.09,-6.09
-8.81,-4.17,0.38,0.63,0.63,0.63
-8.21,-4.25,0.34,5.81,5.81,5.81
-7.96,-4.37,0.35,13.23,14.07,14.07
-7.72,-4.53,0.39,19.67,20.58,20.58
-7.72,-4.45,0.32,28.14,28.14,28.91
-7.52,-4.35,0.27,31.85,31.85,33.53
-7.71,-4.29,0.38,36.47,36.47,36.96
-8.03,-4.34,0.36,40.60,41.09,41.09
-8.08,-4.24,0.21,43.68,43.68,43.89
-8.39,-4.00,0.32,45.36,45.36,45.43
-8.78,-3.78,0.39,44.80,44.80,44.66
-8.57,-3.55,0.29,42.84,42.84,42.49
-8.35,-3.52,0.31,38.71,38.71,38.71
-8.20,-3.41,0.25,35.49,35.49,35.49
-8.25,-3.54,0.34,32.62,32.06,32.06
-7.93,-3.55,0.40,30.38,30.38,29.68
-7.37,-3.87,0.56,28.14,27.93,27.93
-7.23,-4.07,0.88,26.18,26.11,26.11
-7.37,-3.88,0.94,23.73,23.73,23.52
-7.65,-3.99,1.06,21.42,21.42,21.14
-8.06,-3.92,1.22,19.74,19.74,19.74
-8.29,-3.85,1.34,16.87,16.87,16.87
-8.58,-3.77,1.43,14.42,13.44,13.44
-8.82,-3.68,1.48,10.29,9.10,9.10
-9.04,-3.66,1.65,5.25,5.25,3.85
-8.90,-3.79,1.66,-0.70,-0.70,-0.70
-8.80,-4.02,1.59,-5.53,-6.02,-6.02
-8.19,-4.07,1.66,-10.01,-10.01,-10.50
-8.27,-4.11,1.60,-12.32,-12.95,-13.16
-8.26,-4.26,1.62,-13.93,-13.93,-13.93
-7.93,-4.26,1.48,-14.14,-14.14,-14.21
-7.87,-4.22,1.35,-14.56,-14.56,-14.56
-8.07,-4.22,1.12,-11.20,-11.20,-11.20
-7.63,-4.18,0.82,-10.29,-9.94,-9.94
-7.64,-4.13,0.50,-8.96,-8.96,-8.96
-7.51,-4.02,0.39,-8.12,-8.12,-8.12
-7.67,-3.90,0.34,-8.12,-8.12,-8.12
-7.97,-3.83,0.32,-8.61,-8.61,-8.61
-8.19,-3.61,0.34,-8.75,-8.75,-8.75
-7.58,-3.21,0.16,-10.36,-10.64,-10.64
-6.90,-3.06,-0.12,-13.44,-13.93,-13.93
-6.58,-2.95,-0.16,-16.87,-16.87,-16.87
-7.37,-2.97,-0.05,-19.67,-19.67,-19.67
-7.43,-3.23,-0.12,-20.09,-20.09,-20.09
-7.01,-3.34,-0.20,-20.65,-20.65,-20.65
-7.56,-3.61,-0.11,-20.79,-20.65,-20.65
-8.20,-3.72,0.07,-19.88,-19.74,-19.74
-7.92,-3.76,-0.19,-19.32,-19.32,-19.32
-7.60,-3.97,-0.26,-19.25,-19.25,-19.46
-7.98,-4.37,0.01,-18.62,-18.62,-18.62
-8.41,-4.62,-0.05,-16.52,-16.24,-16.24
-8.27,-4.85,-0.19,-14.56,-14.21,-14.21
-7.84,-5.11,-0.21,-11.69,-11.27,-11.27
-8.09,-5.50,-0.04,-8.54,-7.14,-7.14
-9.34,-5.80,0.25,-3.29,-1.89,-1.89
-9.32,-5.72,0.10,3.01,3.64,3.64
-8.59,-5.69,0.08,6.79,6.79,7.14
-8.61,-5.87,0.16,10.50,10.50,10.92
-8.92,-5.80,0.14,13.44,13.44,13.72
-8.43,-5.41,0.07,14.35,14.14,14.07
-8.10,-5.25,0.15,13.23,13.23,12.46
-8.62,-5.16,0.06,10.15,10.15,10.15
-8.80,-4.83,0.08,6.23,5.04,5.04
-8.79,-4.67,0.27,1.54,1.54,0.14
-9.18,-4.78,0.32,-3.99,-3.99,-3.99
-9.57,-4.80,0.24,-9.31,-9.87,-9.87
-9.58,-4.63,0.27,-13.58,-14.14,-14.14
-9.41,-4.68,0.25,-18.48,-18.48,-20.44
-9.45,-4.83,0.12,-23.38,-23.38,-24.08
-9.66,-4.85,0.13,-28.28,-28.28,-28.70
-9.26,-4.73,0.06,-31.36,-31.36,-31.36
-9.05,-4.65,-0.16,-35.70,-36.26,-36.26
-9.04,-4.63,-0.31,-38.43,-39.62,-39.62
-8.86,-4.69,-0.37,-40.88,-41.44,-41.44
-8.82,-4.89,-0.46,-41.79,-41.79,-41.79
-9.16,-5.23,-0.53,-39.76,-39.27,-39.27
-9.42,-5.49,-0.51,-35.28,-34.65,-34.65
-9.23,-5.72,-0.50,-31.15,-28.84,-28.84
-8.67,-5.90,-0.75,-14.98,-14.98,-14.98
-8.66,-6.10,-0.83,-7.07,-7.07,-7.07
-8.42,-6.21,-0.92,-0.21,-0.21,-0.21
-8.12,-6.15,-1.01,7.07,7.07,7.07
-8.04,-6.04,-0.95,26.95,28.98,28.98
-8.41,-5.94,-0.93,37.87,38.29,38.29
-8.40,-5.82,-0.85,40.81,40.81,40.95
-8.34,-5.78,-0.81,42.63,42.63,42.63
-8.25,-5.73,-0.70,41.79,41.79,41.23
-8.04,-5.63,-0.63,39.48,39.48,38.57
-7.88,-5.58,-0.55,34.79,34.79,34.79
-7.96,-5.65,-0.41,30.38,29.82,29.82
-7.94,-5.69,-0.34,26.04,25.62,25.62
-7.98,-5.82,-0.28,22.47,21.98,21.98
-7.93,-5.97,-0.24,16.59,16.03,16.03
-7.81,-7.34,-0.23,12.74,12.74,12.39
-7.74,-6.24,-0.26,8.89,8.05,8.05
-7.84,-6.59,-0.26,5.39,5.39,5.04
-8.08,-6.83,-0.29,2.52,2.52,2.52
-8.41,-7.00,-0.34,0.49,0.49,0.49
-8.45,-7.18,-0.40,-1.26,-1.26,-1.26
-8.46,-7.31,-0.51,-3.08,-3.08,-3.08
-8.45,-7.35,-0.55,-3.92,-3.92,-4.06
-8.31,-7.37,-0.69,-4.83,-4.83,-4.83
-8.10,-7.37,-0.81,-5.74,-5.74,-5.74
-7.93,-7.35,-0.89,-5.81,-5.81,-5.81
-7.75,-7.28,-0.96,-5.04,-5.04,-5.04
-7.62,-7.20,-1.00,-4.06,-4.06,-4.06
-7.54,-7.01,-1.03,-3.36,-3.15,-3.15
-7.51,-6.86,-1.03,-3.15,-3.22,-3.22
-7.75,-6.80,-1.07,-3.22,-3.22,-3.22
-7.88,-6.78,-1.09,-3.36,-3.36,-3.50
-8.05,-6.79,-1.13,-3.92,-3.92,-3.92
-8.51,-6.81,-1.21,-4.76,-4.76,-4.76
-8.87,-6.97,-1.34,-6.44,-6.51,-6.51
-9.25,-7.16,-1.39,-7.77,-7.98,-7.98
-9.68,-7.24,-1.40,-8.75,-9.24,-9.24
-10.35,-7.37,-1.47,-10.36,-11.06,-11.06
-10.44,-7.47,-1.46,-12.18,-12.88,-12.88
-10.04,-7.57,-1.48,-13.79,-14.00,-14.07
-9.61,-7.70,-1.42,-14.14,-14.14,-14.00
-10.03,-7.68,-1.26,-13.23,-13.23,-12.95
-10.64,-7.47,-1.12,-13.02,-13.02,-12.95
-10.62,-7.10,-1.19,-14.77,-15.54,-15.75
-9.87,-6.86,-1.28,-17.57,-17.57,-18.48
-9.68,-6.65,-1.32,-19.32,-19.32,-19.32
-9.40,-6.41,-1.35,-19.95,-20.37,-20.37
-9.24,-6.14,-1.39,-21.63,-21.63,-22.19
-9.05,-5.69,-1.48,-23.66,-23.80,-23.80
-8.50,-5.44,-1.46,-25.06,-25.06,-25.06
-8.25,-5.25,-1.31,-24.71,-24.57,-24.22
-8.53,-5.20,-1.21,-23.10,-23.10,-22.82
-8.83,-4.87,-0.88,-20.65,-20.65,-20.65
-8.91,-4.62,-0.62,-19.39,-19.39,-19.32
-8.57,-4.53,-0.45,-17.64,-17.64,-17.29
-8.11,-4.47,-0.48,-13.02,-13.02,-13.02
-7.43,-4.51,-0.55,-9.73,-8.61,-8.61
-6.88,-4.64,-0.46,-4.20,-4.20,-4.20
-6.92,-4.81,-0.41,3.29,3.29,3.29
-6.90,-5.11,-0.40,10.99,10.99,10.99
-6.65,-5.23,-0.25,19.95,19.95,19.95
-6.90,-5.38,-0.25,26.67,28.98,28.98
-7.45,-5.41,-0.10,35.77,35.77,37.94
-7.26,-5.07,0.11,44.52,44.52,44.52
-7.01,-4.75,0.14,47.67,48.02,48.02
-7.37,-4.61,0.22,49.56,50.40,50.40
-7.65,-4.53,0.20,51.45,51.87,51.87
-7.53,-4.12,0.10,51.73,51.31,50.89
-8.12,-3.72,0.45,48.16,48.16,47.74
-8.53,-3.33,0.91,42.35,42.35,42.35
-7.69,-3.05,0.89,30.45,30.45,28.70
-7.36,-3.32,1.00,23.24,23.24,23.24
-6.69,-3.51,0.98,19.81,18.83,18.83
-6.21,-3.66,1.06,16.17,15.40,15.40
-6.69,-3.60,1.16,13.16,13.16,13.16
-7.14,-3.47,1.09,8.96,8.96,8.96
-8.34,-3.54,0.94,1.89,1.54,1.54
-8.78,-3.76,0.88,-0.14,-0.14,-0.28
-8.22,-4.15,0.71,-0.07,-0.07,-0.14
-7.58,-4.24,0.49,0.42,0.42,0.35
-8.37,-4.13,0.37,0.77,0.77,0.77
-8.50,-4.14,0.38,1.61,1.61,1.61
-7.79,-4.21,0.23,1.61,1.61,1.61
-7.62,-4.01,0.16,0.14,0.14,0.14
-8.33,-3.75,0.21,-1.05,-1.61,-1.61
-8.16,-3.64,0.22,-3.57,-4.41,-4.41
-8.21,-3.67,0.07,-7.00,-7.91,-7.91
-8.81,-3.76,-0.03,-10.15,-10.15,-10.15
-8.88,-4.64,-0.02,-6.65,-6.16,-6.16
-8.32,-4.69,-0.31,-4.20,-4.20,-4.20
-8.14,-4.81,-0.25,-2.52,-2.52,-2.24
-8.38,-4.81,-0.28,0.35,0.35,0.35
-8.37,-4.66,-0.35,2.45,2.45,2.66
-8.30,-4.59,-0.30,4.62,4.62,4.62
-8.59,-4.48,-0.28,5.60,5.60,5.60
-9.01,-4.46,-0.29,6.86,6.86,6.93
-8.61,-4.50,-0.32,7.70,7.70,7.70
-7.80,-4.46,-0.46,7.84,7.70,7.70
-7.89,-4.28,-0.52,2.80,2.80,2.80
-7.66,-4.33,-0.58,0.21,0.00,0.00
-7.79,-4.33,-0.49,-0.77,-0.98,-0.98
-7.93,-4.45,-0.44,-1.40,-1.33,-1.33
-7.55,-4.32,-0.30,-2.38,-2.31,-2.31
-7.55,-4.36,-0.23,-3.43,-3.57,-3.57
-8.08,-4.48,-0.17,-3.78,-3.78,-3.78
-8.20,-4.36,0.03,-2.94,-2.94,-2.87
-8.12,-4.27,-0.04,-3.08,-3.08,-3.22
-7.89,-4.29,-0.05,-3.92,-3.92,-4.34
-7.82,-4.39,0.08,-4.90,-4.90,-4.90
-8.40,-4.19,0.25,-5.04,-5.04,-5.11
-8.36,-4.07,0.20,-5.39,-5.39,-5.60
-8.20,-4.16,0.11,-6.72,-6.72,-6.86
-8.30,-4.24,0.22,-7.56,-7.56,-7.42
-8.45,-4.22,0.40,-7.21,-7.07,-7.07
-8.43,-4.24,0.46,-5.60,-5.60,-5.60
-8.13,-4.34,0.27,-3.78,-3.78,-3.78
-7.89,-4.41,0.31,-2.87,-2.87,-2.45
-8.27,-4.38,0.43,-1.19,-1.19,-1.19
-8.17,-4.38,0.50,0.63,0.63,0.63
-7.70,-4.32,0.36,0.56,0.56,0.56
-7.37,-4.40,0.35,-0.91,-0.98,-0.98
-7.93,-4.46,0.45,-1.61,-1.75,-1.75
-8.65,-4.46,0.60,-2.17,-2.31,-2.52
-8.89,-4.52,0.51,-3.50,-3.50,-3.78
-8.48,-4.58,0.48,-6.51,-6.51,-7.00
-8.58,-4.74,0.48,-8.75,-8.75,-8.75
-9.04,-4.85,0.44,-9.94,-10.08,-10.08
-9.06,-4.92,0.41,-10.64,-10.99,-10.99
-8.77,-5.31,0.14,-10.85,-10.85,-10.85
-8.88,-5.24,0.22,-9.94,-9.73,-9.73
-8.59,-4.94,0.25,-9.94,-10.08,-10.08
-8.80,-4.78,0.09,-10.71,-10.78,-10.78
-9.14,-4.71,0.07,-11.48,-11.48,-11.48
-9.15,-4.69,0.07,-12.18,-12.18,-12.11
-9.04,-4.51,0.03,-13.09,-13.09,-13.09
-9.10,-4.45,0.06,-13.65,-13.65,-13.65
-9.10,-4.47,0.02,-14.42,-14.49,-14.49
-8.97,-4.42,-0.04,-15.40,-15.47,-15.47
-8.91,-4.37,0.01,-16.38,-16.52,-16.52
-8.91,-4.44,0.10,-17.64,-17.64,-17.78
-9.09,-4.56,0.02,-18.27,-18.27,-18.55
-9.25,-4.78,-0.07,-18.97,-18.97,-19.18
-8.92,-4.92,-0.27,-20.02,-20.02,-19.95
-9.00,-5.06,-0.30,-19.81,-19.53,-19.46
-9.12,-5.08,-0.34,-18.76,-18.62,-18.62
-8.93,-5.02,-0.45,-17.57,-17.57,-17.50
-8.69,-4.97,-0.52,-16.52,-16.52,-16.31
-8.60,-5.09,-0.61,-15.33,-14.70,-14.42
-8.82,-5.20,-0.81,-12.11,-12.11,-11.69
-8.85,-5.25,-0.91,-9.38,-9.38,-9.03
-9.09,-5.24,-1.12,-6.93,-6.93,-6.93
-9.15,-5.19,-1.28,-4.97,-4.62,-4.62
-9.09,-5.24,-1.44,-2.52,-2.52,-2.24
-8.93,-5.29,-1.56,-0.49,-0.49,-0.28
-9.30,-5.32,-1.63,0.91,1.33,1.75
-9.48,-5.39,-1.65,3.29,3.29,4.27
-9.66,-5.51,-1.67,6.44,6.44,6.44
-9.69,-5.52,-1.74,8.68,8.68,8.68
-9.75,-5.56,-1.79,10.50,10.50,10.50
-9.78,-5.55,-1.75,12.32,12.32,12.32
-9.59,-5.53,-1.73,13.86,14.28,14.28
-9.28,-5.44,-1.79,14.70,14.70,14.84
-9.06,-5.28,-1.82,14.77,14.77,14.84
-8.91,-5.25,-1.78,14.63,14.63,14.63
-8.42,-5.26,-1.77,13.93,13.93,13.79
-8.23,-5.26,-1.74,12.11,12.11,12.11
-8.15,-5.26,-1.73,10.78,10.57,10.57
-8.20,-5.31,-1.66,8.96,8.96,8.96
-8.46,-5.36,-1.59,7.56,7.56,7.56
-8.84,-5.35,-1.67,4.83,3.85,3.85
-8.87,-5.22,-1.78,1.82,1.26,0.42
-8.99,-5.17,-1.82,-1.75,-2.10,-2.10
-9.27,-5.22,-1.87,-5.67,-6.02,-6.02
-10.33,-5.10,-2.13,-19.32,-19.32,-19.32
-10.45,-5.23,-2.14,-22.26,-23.03,-23.03
-11.07,-5.72,-2.33,-27.37,-27.51,-27.51
-11.38,-5.65,-2.35,-29.05,-29.05,-29.40
-11.11,-5.52,-2.22,-30.45,-30.45,-30.66
-10.99,-5.53,-2.00,-31.36,-31.36,-31.36
-10.85,-5.50,-1.91,-31.08,-31.01,-31.01
-10.40,-5.44,-1.94,-31.15,-31.15,-31.15
-8.89,-5.45,-1.94,-28.77,-28.77,-28.77
-8.95,-5.54,-1.91,-24.85,-24.85,-24.85
-8.88,-5.67,-2.02,-20.86,-20.86,-20.86
-8.72,-5.73,-2.11,-16.80,-16.03,-16.03
-8.80,-5.70,-1.98,-10.15,-9.17,-7.35
-8.86,-5.57,-1.80,-1.12,-1.12,-0.35
-8.83,-5.38,-1.66,6.23,6.23,6.23
-8.61,-5.05,-1.47,12.18,12.18,12.18
-8.46,-4.85,-1.33,16.87,18.34,18.34
-7.83,-4.70,-1.18,22.82,23.31,23.31
-7.59,-4.47,-1.05,27.16,27.16,27.58
-7.60,-4.28,-0.79,29.82,29.82,30.24
-7.55,-4.31,-0.64,32.20,32.20,32.69
-7.38,-4.37,-0.39,35.14,35.14,35.14
-7.69,-4.31,-0.20,36.54,36.96,36.96
-8.01,-4.27,-0.09,38.36,38.78,38.78
-7.65,-4.38,-0.02,39.76,39.76,40.04
-7.54,-4.25,0.02,40.25,40.25,40.25
-7.94,-4.27,0.12,39.90,39.90,39.90
-8.03,-4.34,0.20,40.11,40.18,40.18
-7.70,-4.23,0.33,39.34,39.34,39.27
-7.86,-4.12,0.37,38.43,38.43,37.73
-7.92,-4.03,0.38,36.68,36.68,36.33
-8.22,-3.91,0.20,33.25,33.25,32.76
-8.49,-3.85,0.19,31.01,30.38,30.38
-7.97,-3.74,0.29,28.00,28.00,27.02
-7.78,-3.80,0.27,24.01,24.01,24.01
-7.75,-3.83,0.29,21.42,21.42,21.42
-7.91,-3.90,0.21,18.97,18.62,18.62
-7.86,-3.95,0.34,15.68,15.68,15.68
-8.04,-3.99,0.43,12.32,11.69,11.13
-8.11,-4.03,0.53,9.45,9.45,8.33
-8.13,-3.99,0.63,5.53,5.53,5.11
-8.50,-4.00,0.68,0.70,0.70,0.70
-8.74,-4.03,0.78,-2.17,-2.17,-2.17
-9.07,-4.00,0.83,-4.97,-4.97,-5.39
-9.03,-4.09,0.83,-7.70,-7.70,-8.05
-8.59,-4.15,0.84,-10.43,-10.43,-10.43
-8.18,-4.17,0.74,-11.41,-11.41,-11.41
-7.93,-3.75,0.84,-14.42,-14.42,-14.42
-8.25,-3.84,0.74,-15.19,-15.19,-15.19
-8.10,-3.99,0.78,-14.91,-14.91,-14.91
-8.01,-4.29,0.51,-13.30,-13.30,-13.30
-7.52,-4.58,0.20,-10.15,-9.94,-9.94
-6.71,-4.69,0.01,-8.61,-8.12,-8.12
-7.23,-4.40,-0.31,-7.91,-8.12,-8.19
-8.07,-4.25,-0.33,-9.03,-9.03,-9.10
-8.95,-4.15,-0.42,-10.99,-10.99,-11.27
-9.22,-4.15,-0.43,-12.74,-12.74,-12.74
-8.42,-3.98,-0.84,-12.81,-12.81,-12.81
-8.48,-4.01,-0.86,-13.16,-13.09,-13.09
-8.59,-4.23,-0.78,-11.97,-10.99,-10.99
-7.99,-4.21,-0.76,-8.61,-8.19,-8.19
-7.63,-4.07,-0.90,-5.60,-5.60,-5.25
-7.50,-4.03,-0.97,-3.78,-3.78,-3.64
-7.51,-3.96,-0.89,-1.89,-1.89,-1.89
-7.93,-3.86,-0.83,-0.07,-0.07,-0.07
-8.71,-3.85,-0.84,1.12,1.12,1.12
-8.76,-4.00,-0.76,2.94,3.36,3.36
-8.15,-4.03,-0.69,4.62,4.83,5.18
-7.54,-3.88,-0.79,5.95,5.95,5.95
-7.59,-3.86,-0.81,6.30,6.37,6.44
-7.71,-3.79,-0.65,6.79,6.72,6.79
-7.93,-3.93,-0.54,7.56,7.70,7.70
-8.14,-4.05,-0.35,9.73,9.73,9.73
-8.11,-4.13,-0.34,11.69,12.39,12.39
-8.09,-4.20,-0.33,14.84,15.68,15.68
-7.94,-4.21,-0.33,17.78,17.78,18.27
-8.12,-4.22,0.00,21.91,21.91,21.91
-8.19,-4.27,0.17,23.66,23.66,23.66
-8.42,-4.37,0.32,24.71,24.71,24.71
-8.50,-4.21,0.35,24.57,24.64,24.64
-8.48,-4.00,0.35,22.19,22.19,21.70
-8.12,-3.70,0.33,18.27,18.27,17.64
-8.14,-3.56,0.23,12.60,10.99,10.99
-8.67,-3.53,0.40,5.53,4.76,4.76
-8.70,-3.50,0.39,-3.08,-3.08,-3.85
-8.78,-3.49,0.26,-10.71,-10.71,-10.71
-9.15,-3.45,0.28,-19.95,-19.95,-19.95
-8.94,-3.44,0.19,-25.55,-27.30,-27.30
-9.00,-3.61,0.10,-31.71,-31.71,-33.04
-8.99,-4.02,-0.09,-36.12,-36.12,-36.12
-8.79,-4.36,-0.33,-38.85,-38.85,-38.85
-8.90,-4.47,-0.35,-38.57,-38.57,-38.57
-9.17,-4.53,-0.34,-37.31,-36.68,-36.68
-9.38,-4.66,-0.42,-34.30,-34.30,-34.30
-9.11,-4.82,-0.50,-30.10,-30.10,-29.05
-8.96,-4.96,-0.49,-24.92,-24.92,-24.92
-9.15,-5.08,-0.43,-16.59,-16.59,-16.59
-9.26,-5.00,-0.42,-10.22,-10.22,-10.22
-8.86,-4.88,-0.35,-5.81,-5.81,-5.81
-8.59,-4.78,-0.27,-0.84,-0.84,-0.21
-8.92,-4.85,-0.25,3.08,3.08,3.08
-8.98,-4.87,-0.10,7.49,7.49,7.49
-8.57,-4.74,-0.05,9.31,9.52,9.52
-8.48,-4.57,-0.11,10.36,10.36,10.36
-8.81,-4.50,-0.16,10.29,10.29,10.29
-8.81,-4.50,-0.05,9.17,9.17,9.17
-8.48,-4.51,-0.06,7.00,7.00,7.00
-8.40,-4.57,-0.07,4.97,4.27,4.27
-8.77,-4.65,-0.07,1.40,1.40,0.91
-8.62,-4.75,-0.11,-3.78,-3.78,-3.78
-8.48,-4.82,-0.18,-7.42,-8.75,-8.75
-8.53,-4.92,-0.21,-12.53,-13.30,-13.30
-8.60,-5.03,-0.14,-19.04,-19.04,-19.67
-8.61,-5.05,-0.14,-22.89,-24.29,-25.06
-9.19,-5.30,-0.39,-28.91,-29.61,-29.61
-9.27,-5.67,-0.39,-35.07,-35.07,-35.49
-9.05,-6.18,-0.72,-40.32,-40.32,-40.32
-9.38,-6.48,-0.93,-40.74,-40.74,-40.74
-9.51,-6.59,-1.18,-38.92,-38.92,-38.92
-9.20,-6.68,-1.34,-37.10,-37.10,-36.40
-9.01,-6.79,-1.54,-33.81,-33.81,-33.81
-9.08,-6.95,-1.78,-27.65,-27.65,-27.65
-8.92,-6.97,-1.98,-21.42,-21.42,-21.42
-8.62,-7.00,-2.16,-14.70,-14.70,-14.70
-8.42,-6.92,-2.30,-9.80,-9.80,-9.10
-8.54,-6.97,-2.44,-1.61,-1.61,-1.61
-8.71,-6.79,-2.50,3.08,4.55,4.55
-8.69,-6.56,-2.63,8.54,8.54,9.66
-8.43,-6.42,-2.77,12.46,12.46,12.46
-8.57,-6.23,-2.88,16.03,16.03,16.03
-8.76,-6.12,-2.92,17.92,17.92,17.92
-8.84,-5.92,-2.95,18.20,18.20,18.20
-8.84,-5.64,-2.90,16.38,16.38,16.38
-8.77,-5.53,-2.82,13.65,13.65,13.65
-8.75,-5.47,-2.78,10.78,10.78,10.78
-8.82,-5.39,-2.73,8.05,7.63,7.63
-8.97,-5.31,-2.75,2.45,2.45,2.03
-9.01,-5.29,-2.75,-1.19,-1.19,-3.08
-9.38,-5.29,-2.79,-5.95,-5.95,-6.44
-10.00,-5.37,-2.88,-10.78,-10.78,-11.20
-10.46,-5.58,-3.01,-13.65,-13.65,-13.93
-10.61,-5.70,-3.09,-15.68,-15.68,-15.82
-10.45,-5.85,-2.76,-16.03,-16.03,-16.03
-10.60,-5.93,-2.53,-14.63,-14.63,-14.63
-10.94,-6.11,-2.41,-13.02,-13.02,-13.02
-10.49,-6.29,-2.47,-11.83,-11.83,-11.83
-9.86,-6.29,-2.63,-9.59,-9.59,-9.59
-9.19,-6.15,-2.62,-7.49,-7.14,-7.14
-8.99,-5.94,-2.65,-4.41,-4.41,-3.50
-8.97,-5.65,-2.74,-2.45,-2.45,-2.31
-8.71,-5.19,-2.55,-1.68,-1.68,-1.68
-8.44,-5.07,-2.42,-0.77,-0.77,-0.77
-9.18,-5.15,-2.32,2.66,3.22,3.22
-9.65,-5.25,-2.34,5.95,7.42,7.42
-9.45,-5.31,-2.23,9.80,10.36,11.27
-9.29,-5.28,-1.88,14.63,14.63,15.40
-9.38,-5.25,-1.74,21.98,21.98,21.98
-9.00,-5.09,-1.65,26.74,28.14,28.14
-8.26,-4.61,-1.38,31.85,31.85,32.20
-7.67,-4.33,-1.23,34.58,34.58,34.58
-7.44,-3.91,-1.15,36.19,36.19,36.19
-6.83,-3.61,-1.04,35.56,35.35,35.35
-6.94,-3.54,-0.81,34.65,34.51,34.51
-7.43,-3.42,-0.57,32.76,32.55,32.55
-7.59,-3.49,-0.48,29.96,29.96,29.61
-7.76,-3.51,-0.37,26.39,26.39,25.90
-8.16,-3.50,-0.36,23.94,23.03,22.82
-7.37,-3.49,-0.33,18.55,18.13,18.13
-7.31,-3.49,-0.22,14.70,14.70,14.28
-7.37,-3.54,-0.26,12.18,12.18,12.04
-7.41,-3.53,-0.19,10.64,10.64,10.43
-7.61,-3.80,0.27,7.84,7.84,7.84
-7.43,-3.90,0.27,8.82,8.82,8.82
-7.51,-4.03,0.29,9.38,9.66,9.66
-7.70,-4.13,0.31,11.20,12.11,12.11
-7.26,-4.25,0.25,15.40,15.40,15.40
-7.29,-4.35,0.37,20.72,20.72,20.72
-7.15,-4.41,0.37,24.15,25.27,25.27
-7.16,-4.28,0.24,29.47,29.47,30.03
-7.56,-4.15,0.22,34.09,34.09,34.44
-7.85,-3.87,0.24,37.03,37.03,37.17
-7.97,-3.60,0.27,37.31,37.31,37.31
-8.07,-3.57,0.20,36.47,36.47,36.26
-8.65,-3.39,0.20,34.72,34.72,34.16
-8.76,-3.19,0.30,31.99,31.99,31.99
-8.82,-2.98,0.36,24.71,24.71,24.71
-8.89,-3.08,0.41,18.34,18.34,18.34
-8.87,-3.26,0.36,14.77,13.65,13.65
-8.70,-3.55,0.52,11.41,11.41,10.71
-8.01,-3.70,0.66,8.54,8.19,8.19
-8.34,-3.78,0.52,5.25,5.25,4.90
-8.61,-3.91,0.48,3.71,3.29,3.29
-8.40,-4.08,0.58,1.89,1.89,1.75
-8.08,-4.07,0.60,0.49,0.00,-0.21
-8.20,-4.00,0.50,-1.19,-1.19,-1.68
-8.15,-3.94,0.36,-2.59,-2.59,-2.87
-8.15,-3.87,0.51,-5.04,-5.04,-5.25
-7.88,-3.81,0.61,-7.35,-7.35,-7.63
-7.63,-3.73,0.34,-9.17,-9.17,-9.31
-8.38,-3.79,0.17,-9.87,-9.87,-9.87
-8.35,-3.96,0.38,-9.73,-9.73,-9.66
-7.79,-3.91,0.54,-10.29,-10.29,-10.29
-7.58,-3.91,0.52,-10.92,-11.13,-11.13
-7.72,-3.96,0.54,-11.69,-11.69,-11.97
-7.57,-3.86,0.54,-13.51,-13.51,-13.51
-7.39,-3.74,0.50,-17.92,-17.92,-17.92
-7.48,-3.58,0.31,-22.75,-22.75,-22.75
-7.97,-3.55,0.15,-26.39,-27.65,-27.65
-8.25,-3.42,0.14,-31.85,-31.85,-32.62
-8.14,-3.24,-0.05,-37.10,-37.10,-37.59
-7.97,-3.24,-0.34,-41.65,-41.65,-41.65
-8.33,-3.21,-0.44,-45.36,-45.36,-45.36
-8.99,-3.35,-0.39,-45.85,-45.85,-45.78
-8.97,-3.80,-0.44,-43.05,-43.05,-42.63
-8.36,-4.19,-0.48,-38.43,-38.43,-37.66
-8.13,-4.55,-0.37,-31.43,-31.43,-30.38
-8.57,-4.85,-0.33,-24.29,-24.29,-23.24
-8.67,-5.06,-0.16,-15.47,-15.47,-15.47
-8.11,-5.22,-0.14,-6.02,-6.02,-6.02
-7.88,-5.33,-0.10,-0.14,-0.14,-0.14
-8.22,-5.27,0.02,4.06,5.32,5.32
-8.48,-5.02,-0.02,9.03,9.03,9.45
-8.43,-4.88,-0.20,10.22,10.22,10.22
-8.12,-4.73,-0.34,8.26,8.26,8.26
-8.06,-4.47,-0.53,5.81,5.81,5.81
-8.38,-4.14,-0.66,0.49,0.49,0.49
-8.51,-4.05,-0.78,-5.53,-5.53,-5.53
-8.57,-4.02,-0.84,-10.64,-10.64,-10.64
-8.70,-4.07,-0.86,-17.71,-17.71,-17.71
-9.24,-4.27,-0.94,-21.70,-21.70,-21.70
-9.33,-4.45,-1.01,-25.62,-25.62,-25.62
-9.01,-4.49,-1.03,-28.28,-28.63,-28.63
-8.89,-4.51,-1.04,-31.08,-31.08,-31.15
-9.31,-4.85,-1.07,-31.64,-31.64,-31.57
-9.27,-5.14,-1.00,-30.38,-30.38,-30.38
-9.20,-5.20,-0.86,-28.14,-28.14,-28.14
-9.36,-5.36,-0.78,-25.34,-25.34,-24.36
-9.60,-5.75,-0.73,-19.67,-19.67,-19.67
-9.76,-6.00,-0.64,-14.07,-14.07,-13.44
-9.68,-6.17,-0.64,-8.05,-6.30,-6.30
-9.72,-6.40,-0.67,-1.47,0.21,0.21