aX,aY,aZ,gX,gY,gZ
10.36,0.39,2.42,-61.74,-61.74,-59.99
10.00,0.38,2.58,-50.82,-47.18,-45.22
9.98,0.76,2.40,-35.91,-35.91,-30.66
9.92,1.41,1.65,-19.25,-19.25,-17.78
9.70,1.88,1.10,-8.75,-8.75,-7.63
9.72,2.36,0.57,-2.45,-0.70,0.14
10.37,3.10,-0.16,3.92,5.18,5.88
10.67,3.91,-0.54,8.54,8.54,9.94
10.83,4.42,-1.23,12.18,12.18,12.53
10.39,5.02,-1.50,16.24,16.24,16.52
9.66,5.13,-1.57,18.55,18.55,18.55
9.21,5.17,-1.72,19.39,19.39,19.39
9.67,5.33,-1.99,18.97,18.62,18.62
9.87,5.64,-2.40,17.15,16.94,16.94
10.00,5.52,-2.39,14.98,14.98,14.84
9.62,5.03,-2.25,14.56,14.56,14.70
9.15,4.64,-2.11,15.54,16.03,16.24
9.51,4.46,-2.17,18.13,18.13,19.32
9.47,4.18,-2.05,23.17,23.17,23.17
9.19,3.80,-1.70,30.17,30.17,30.17
8.90,3.28,-1.23,35.70,35.70,35.70
8.23,2.80,-0.54,42.14,42.77,42.77
7.71,2.48,0.07,48.44,48.44,48.93
7.10,2.31,0.48,50.40,50.75,50.82
6.89,2.26,0.58,50.96,50.96,50.96
6.72,1.78,0.31,53.97,53.97,55.86
6.77,1.57,0.03,70.42,72.52,72.52
7.07,2.09,-0.12,87.57,87.57,89.60
7.57,2.91,-0.42,102.41,104.02,104.02
8.12,4.06,-0.71,113.12,113.12,113.68
8.59,4.62,-0.94,115.92,115.92,115.92
9.13,5.21,-1.04,114.59,114.59,114.24
9.66,5.67,-0.96,108.99,108.99,107.94
9.67,5.82,-0.82,99.89,99.89,98.28
9.62,5.77,-0.60,85.26,83.23,83.23
9.85,5.51,-0.69,65.38,65.38,65.38
9.53,4.91,-0.67,47.11,47.11,45.08
9.24,4.18,-0.63,29.26,29.26,29.26
9.49,3.86,-0.64,14.28,12.67,12.67
9.69,3.55,-0.77,3.71,2.17,2.17
9.76,3.13,-0.65,-9.66,-9.66,-10.64
9.74,2.99,-0.41,-15.96,-15.96,-18.55
9.43,2.89,0.06,-22.26,-22.26,-22.89
9.04,2.50,0.28,-33.81,-33.81,-34.44
9.18,2.46,0.15,-39.41,-39.41,-40.11
9.52,2.51,0.04,-44.03,-44.03,-44.45
9.45,2.51,0.10,-45.85,-45.85,-46.13
9.30,2.50,0.16,-45.99,-45.99,-45.99
9.34,2.42,0.03,-44.10,-44.10,-44.10
9.65,2.31,-0.06,-42.77,-42.49,-42.00
9.81,2.15,-0.19,-40.25,-39.90,-39.90
9.85,1.87,-0.21,-35.84,-35.35,-35.35
9.74,1.62,-0.26,-31.99,-31.29,-31.29
9.80,1.35,-0.47,-26.04,-26.04,-26.04
10.01,1.34,-0.44,-18.41,-18.41,-18.41
9.94,1.29,-0.41,-13.16,-11.27,-11.27
9.69,1.16,-0.31,-5.53,-5.53,-3.50
9.59,1.12,-0.29,3.71,4.69,4.69
9.45,1.15,-0.30,12.95,12.95,14.00
9.47,1.28,-0.28,22.19,22.19,22.19
9.42,1.49,-0.13,27.79,27.79,27.79
9.40,1.67,-0.04,32.90,32.90,33.39
9.58,1.79,-0.09,35.98,35.98,35.98
9.64,1.96,0.01,36.33,36.33,36.33
10.18,2.15,-0.26,28.98,28.56,28.56
10.17,2.08,-0.29,26.74,25.76,25.76
10.15,1.93,-0.45,24.29,24.01,23.38
10.05,1.84,-0.55,22.33,22.19,21.63
9.79,1.75,-0.55,20.44,20.44,20.23
9.87,1.64,-0.77,18.13,18.13,17.99
9.63,1.70,-0.70,17.99,17.99,17.99
9.47,1.80,-0.69,17.71,17.71,17.71
9.44,1.96,-0.70,16.45,16.45,16.45
9.35,2.11,-0.67,13.72,13.72,13.72
9.31,2.19,-0.67,11.83,11.41,11.41
9.29,2.23,-0.64,9.45,9.45,9.17
9.14,2.19,-0.65,6.58,6.58,6.23
9.21,2.13,-0.63,4.41,4.41,4.41
9.47,2.09,-0.71,2.03,1.61,1.61
9.61,1.98,-0.83,-1.68,-1.96,-1.96
9.54,1.97,-0.72,-4.62,-4.97,-4.97
9.71,1.92,-0.66,-7.49,-7.77,-7.77
10.24,1.83,-0.77,-10.08,-10.50,-10.50
10.16,1.78,-0.73,-13.02,-13.02,-13.02
9.92,1.74,-0.59,-15.12,-15.12,-15.12
9.72,1.75,-0.53,-17.71,-18.13,-18.13
9.60,1.76,-0.52,-19.81,-20.93,-20.93
9.71,1.75,-0.47,-23.45,-23.45,-23.45
9.75,1.75,-0.49,-25.69,-25.69,-25.69
9.67,1.65,-0.43,-26.11,-26.04,-26.04
9.43,1.50,-0.33,-24.85,-24.85,-24.85
9.38,1.36,-0.26,-23.52,-23.52,-23.31
9.48,1.25,-0.26,-20.86,-20.86,-20.86
9.58,1.12,-0.29,-18.06,-18.06,-18.06
9.55,1.07,-0.23,-13.30,-13.30,-13.30
9.61,1.09,-0.25,-9.59,-9.59,-9.59
9.60,1.12,-0.25,-5.39,-5.39,-5.39
9.64,1.13,-0.24,0.14,0.14,0.14
9.75,1.15,-0.24,3.92,3.92,3.92
9.70,1.17,-0.28,7.98,7.98,7.98
9.57,1.22,-0.26,13.02,13.02,13.02
9.69,1.28,-0.31,15.82,15.82,15.82
9.92,1.42,-0.37,17.22,17.43,17.43
9.98,1.49,-0.38,17.85,17.85,17.99
10.02,1.57,-0.34,17.92,17.78,17.78
9.99,1.56,-0.31,17.57,17.57,17.43
9.91,1.60,-0.27,16.94,16.94,16.80
9.93,1.62,-0.23,16.24,16.24,16.31
9.67,1.60,-0.06,16.31,16.31,16.31
9.41,1.52,-0.14,17.36,17.78,17.78
9.54,1.36,-0.42,18.97,19.25,19.25
9.51,1.18,-0.62,19.88,20.02,20.02
9.71,1.12,-0.76,19.25,19.25,19.18
9.93,1.12,-0.64,18.48,18.48,18.48
9.88,1.08,-0.45,18.27,18.27,18.27
9.70,1.12,-0.18,19.25,19.46,19.46
9.68,1.17,-0.17,20.65,20.86,21.14
9.58,1.29,-0.24,21.77,21.77,21.91
9.66,1.39,-0.43,21.84,21.84,21.70
9.77,1.56,-0.57,21.21,21.21,21.14
9.86,1.67,-0.68,20.37,20.37,20.30
9.81,1.66,-0.62,19.95,19.95,20.02
9.94,1.26,-0.71,18.27,18.27,18.13
9.85,1.29,-0.75,17.01,17.01,17.01
9.72,1.35,-0.78,14.14,13.86,13.86
9.72,1.47,-0.78,10.92,10.92,10.92
9.70,1.67,-0.70,5.11,5.11,5.11
9.67,1.81,-0.58,1.12,0.49,0.49
9.88,2.00,-0.61,-6.44,-6.44,-6.44
9.86,2.04,-0.57,-11.27,-11.27,-11.97
9.82,1.98,-0.59,-18.76,-18.76,-18.76
9.88,1.88,-0.61,-23.10,-23.10,-23.10
9.63,1.72,-0.46,-26.95,-26.95,-26.95
9.39,1.42,-0.44,-27.86,-27.86,-27.86
9.38,1.15,-0.50,-27.37,-27.09,-27.09
9.41,1.01,-0.54,-24.92,-24.43,-24.43
9.37,0.82,-0.53,-21.28,-20.72,-20.72
9.21,0.66,-0.50,-14.63,-14.63,-13.93
9.34,0.59,-0.68,-10.43,-9.03,-8.26
9.54,0.59,-0.71,-4.69,-3.15,-2.59
9.79,0.73,-0.72,1.12,1.12,3.22
10.15,0.96,-0.71,7.98,7.98,7.98
10.21,1.15,-0.78,13.72,13.72,13.72
10.23,1.22,-0.86,16.59,16.59,16.59
10.19,1.20,-0.82,19.53,19.74,19.74
9.88,1.15,-0.78,21.00,21.84,21.84
9.57,1.16,-0.82,23.17,23.17,23.17
9.44,1.15,-0.89,24.15,24.15,24.15
9.38,1.18,-0.95,24.29,24.29,24.43
9.49,1.19,-0.97,23.80,23.80,23.80
9.69,1.17,-1.05,23.24,22.82,22.82
9.91,1.34,-1.06,21.98,21.77,21.77
9.87,1.49,-0.94,20.02,20.02,19.88
9.78,1.62,-0.92,18.55,18.13,0.21
9.85,1.70,-0.99,14.42,14.42,13.86
9.78,1.69,-1.06,10.15,10.15,10.15
9.69,1.69,-1.05,6.09,6.09,6.09
9.52,1.72,-0.99,3.22,3.22,3.22
9.27,1.68,-1.03,-0.56,-0.56,-0.56
9.23,1.49,-1.10,-3.01,-3.01,-3.01
9.11,1.48,-1.13,-5.81,-6.09,-6.09
9.15,1.51,-1.12,-7.77,-7.91,-7.91
9.33,1.50,-1.12,-9.73,-9.94,-9.94
9.72,1.50,-1.21,-11.20,-11.76,-11.76
9.79,1.42,-1.14,-13.02,-13.09,-13.09
9.69,1.40,-1.07,-14.28,-14.28,-14.28
9.81,1.45,-1.04,-15.61,-15.61,-15.61
10.04,1.53,-1.08,-17.36,-17.36,-17.36
10.04,1.54,-1.04,-19.04,-19.25,-19.25
9.98,1.49,-0.99,-20.44,-20.51,-20.51
10.03,1.41,-1.00,-21.35,-21.70,-21.70
9.93,1.36,-0.95,-22.12,-22.19,-22.19
9.73,1.31,-0.90,-21.91,-21.70,-21.70
9.66,1.19,-0.90,-20.79,-20.79,-20.65
9.62,1.06,-0.91,-18.69,-18.69,-18.34
9.53,0.99,-0.91,-16.24,-16.24,-15.89
9.61,0.96,-0.87,-14.00,-13.16,-12.67
9.64,0.94,-0.85,-10.50,-9.59,-9.10
9.61,0.93,-0.76,-5.81,-5.81,-5.81
9.77,0.89,-0.87,-1.33,-1.33,-0.70
9.54,0.91,-0.82,2.94,2.94,2.94
9.50,0.97,-0.90,7.07,7.35,7.35
9.66,1.03,-1.02,9.24,9.52,9.52
9.84,1.16,-1.09,10.15,10.15,10.15
9.92,1.22,-1.09,10.08,10.08,10.08
9.71,1.24,-1.03,10.22,10.22,10.22
9.60,1.28,-1.01,10.29,10.15,10.15
9.57,1.35,-0.98,9.59,9.52,9.52
9.59,1.39,-0.99,7.84,7.84,7.56
9.75,1.42,-1.05,5.60,5.60,5.32
9.72,1.43,-0.99,3.78,3.78,3.78
9.95,1.48,-0.93,2.10,2.10,2.10
9.91,1.47,-0.84,0.63,0.63,0.63
9.81,1.41,-0.79,-0.21,-0.21,-0.21
10.08,1.46,-0.75,-1.33,-1.33,-1.33
10.16,1.54,-0.69,-2.80,-2.80,-2.80
9.79,1.49,-0.63,-3.15,-3.08,-3.08
9.72,1.45,-0.58,-2.87,-2.87,-2.87
9.99,1.59,-0.75,-2.31,-2.17,-2.17
9.93,1.64,-0.78,-1.89,-1.68,-1.68
9.87,1.53,-0.84,-1.40,-1.26,-1.26
9.81,1.51,-0.80,-0.70,-0.70,-0.70
9.70,1.52,-0.90,-0.28,-0.28,-0.28
9.75,1.60,-0.98,-0.07,0.07,0.07
9.95,1.74,-0.96,0.42,0.42,0.77
10.04,1.86,-0.94,1.75,1.75,1.96
10.19,1.84,-0.85,4.55,4.55,4.55
10.11,1.80,-0.65,7.28,7.28,7.70
9.84,1.90,-0.62,10.36,10.36,10.85
9.54,1.99,-0.49,12.67,12.67,12.95
8.21,1.93,-0.41,17.99,17.99,17.99
8.17,1.93,-0.60,15.54,15.54,15.54
8.13,1.90,-0.59,14.42,14.28,14.28
8.53,2.09,-0.45,14.42,14.42,14.42
8.93,2.13,-0.41,15.82,15.82,15.82
9.55,1.90,-0.49,17.22,17.22,17.08
9.82,1.85,-0.64,17.22,17.22,17.22
9.84,1.92,-0.72,17.57,17.57,17.57
10.08,2.02,-0.85,17.64,17.64,17.64
10.13,2.07,-1.00,17.22,17.15,16.73
10.16,2.02,-1.08,14.56,14.35,13.79
10.17,2.12,-1.05,12.25,11.90,11.90
10.20,2.17,-1.07,8.12,8.12,7.70
10.27,2.10,-1.13,4.41,4.41,4.41
10.20,1.99,-1.03,0.56,0.56,0.56
10.02,2.02,-0.91,-0.49,-0.49,-0.77
9.75,2.04,-0.82,-1.47,-1.54,-1.54
9.71,2.02,-0.76,-2.45,-2.59,-2.59
9.41,1.93,-0.74,-3.92,-3.92,-3.99
9.07,1.81,-0.75,-4.62,-5.04,-5.11
8.81,1.81,-0.69,-5.81,-5.81,-6.23
8.76,1.85,-0.78,-6.86,-6.86,-6.86
8.92,1.91,-0.78,-6.86,-6.86,-6.86
9.05,1.96,-0.76,-6.16,-6.16,-6.16
8.99,1.90,-0.76,-5.53,-5.53,-5.53
9.16,1.81,-0.86,-5.11,-5.11,-5.11
9.29,1.73,-0.97,-4.90,-4.90,-4.90
9.38,1.70,-1.09,-4.83,-4.83,-4.83
9.64,1.67,-1.14,-4.76,-4.83,-4.83
9.66,1.67,-1.20,-4.83,-4.76,-4.76
9.79,1.72,-1.13,-4.41,-4.41,-4.41
10.00,1.78,-1.25,-3.99,-3.99,-3.99
9.90,1.79,-1.25,-3.71,-3.71,-3.71
9.98,1.86,-1.33,-3.99,-3.99,-3.99
9.82,1.89,-1.27,-4.41,-4.62,-4.62
9.61,1.88,-1.25,-4.90,-5.04,-5.11
9.51,1.84,-1.31,-5.53,-5.74,-5.74
9.27,1.73,-1.19,-6.65,-6.65,-6.65
9.25,1.41,-1.42,-9.10,-9.10,-9.10
9.08,1.25,-1.58,-10.08,-10.08,-10.08
9.03,1.22,-1.57,-10.71,-10.71,-10.71
9.15,1.13,-1.67,-11.06,-11.06,-11.06
9.27,1.12,-1.79,-11.69,-11.76,-11.76
9.41,1.09,-1.81,-12.04,-12.11,-12.11
9.60,0.99,-1.93,-12.04,-12.11,-11.97
9.85,0.95,-2.34,-11.83,-11.83,-11.90
9.51,0.93,-2.78,-10.29,-10.08,-10.08
9.52,0.90,-2.72,-8.75,-8.75,-8.47
9.50,0.80,-2.91,-6.65,-6.65,-6.65
9.38,0.78,-2.98,-5.95,-5.95,-5.95
9.49,0.78,-3.05,-5.67,-5.67,-5.67
9.73,0.80,-3.21,-5.46,-5.46,-5.46
9.76,0.84,-3.33,-5.04,-5.04,-5.04
9.60,0.83,-3.31,-3.92,-3.85,-3.85
9.76,0.85,-3.33,-3.22,-3.08,-3.08
9.82,0.87,-3.27,-2.66,-2.66,-2.45
9.71,0.84,-3.22,-2.03,-1.89,-1.89
9.53,0.78,-3.16,-1.12,-0.84,-0.84
9.52,0.73,-3.19,-0.56,-0.21,-0.21
9.48,0.63,-3.34,0.63,1.05,1.05
9.35,0.61,-3.30,2.10,2.10,2.10
9.37,0.60,-3.31,3.36,3.85,3.85
9.17,0.67,-3.13,4.69,4.90,5.25
9.15,0.75,-3.11,5.74,5.81,5.81
9.26,0.89,-3.08,5.53,5.18,5.18
9.46,1.02,-3.11,4.20,3.99,3.57
9.85,1.07,-3.35,2.38,2.24,2.24
9.57,1.19,-3.07,1.12,1.05,1.05
9.26,1.21,-2.71,1.26,1.26,1.26
9.29,1.19,-2.76,1.12,1.12,0.98
9.36,1.25,-2.73,0.21,-0.35,-0.35
9.47,1.37,-2.57,-1.47,-1.89,-2.31
9.70,1.54,-2.46,-3.92,-4.34,-4.83
10.48,1.74,-2.75,-7.00,-7.00,-7.21
10.07,1.86,-2.08,-6.58,-6.58,-6.58
9.32,1.85,-1.71,-4.27,-4.27,-4.27
9.06,1.90,-1.53,-1.26,-1.26,-1.26
9.27,1.98,-1.54,-0.70,-0.70,-0.70
9.79,2.08,-1.42,-1.26,-1.26,-1.26
10.42,2.39,-1.45,-2.94,-3.08,-3.08
9.51,2.49,-0.94,-3.15,-2.80,-2.80
8.58,2.45,-0.29,-0.91,-0.91,-0.91
8.44,2.39,-0.14,1.12,1.12,1.12
8.94,2.39,-0.01,1.19,1.19,1.19
9.27,2.39,0.05,1.54,1.54,1.54
9.08,2.36,0.12,3.43,3.43,3.43
8.88,2.26,0.09,6.72,6.72,6.72
9.13,2.13,-0.06,11.20,11.55,11.55
8.99,2.05,-0.01,14.14,14.63,14.63
9.07,1.98,-0.04,17.08,17.08,17.43
9.25,1.95,-0.28,20.30,20.30,20.30
9.63,1.99,-0.56,21.42,21.63,21.63
9.80,2.14,-0.66,22.61,22.61,22.89
9.47,2.26,-0.52,24.43,24.43,24.43
9.45,2.38,-0.59,25.62,25.62,25.62
9.45,2.48,-0.82,24.99,24.99,24.99
9.22,2.54,-0.99,21.77,21.77,21.77
9.16,2.59,-1.01,19.11,18.20,18.20
9.06,2.58,-1.12,14.70,14.70,14.28
9.12,1.23,-1.27,9.66,9.66,9.66
9.17,2.20,-1.41,6.93,6.09,6.09
9.32,2.03,-1.57,3.36,3.36,2.59
9.49,1.87,-1.65,-0.49,-0.49,-0.49
9.75,1.71,-1.81,-3.64,-3.78,-3.78
9.98,1.69,-1.93,-5.74,-6.02,-6.02
10.03,1.68,-1.95,-7.42,-7.42,-7.63
10.14,1.70,-2.11,-9.45,-9.45,-9.45
10.39,1.65,-2.10,-10.29,-10.43,-10.43
9.99,1.52,-1.96,-10.22,-10.22,-10.15
9.80,1.46,-2.00,-9.45,-9.45,-9.45
9.80,1.49,-2.03,-9.03,-8.96,-8.96
9.78,1.52,-2.12,-8.96,-9.10,-9.10
9.57,1.56,-2.13,-9.52,-9.52,-9.80
9.52,1.71,-2.11,-10.43,-10.43,-10.43
9.50,1.81,-2.10,-11.27,-11.41,-11.41
9.22,1.81,-1.99,-11.55,-11.55,-11.62
9.25,1.72,-2.06,-11.20,-11.20,-11.13
9.40,1.58,-2.10,-10.57,-10.57,-10.50
9.17,1.37,-1.94,-8.33,-8.33,-8.33
8.97,1.19,-1.81,-5.46,-5.46,-5.46
8.89,1.13,-1.82,-2.10,-2.10,-2.10
8.96,1.13,-1.89,0.91,0.91,0.91
9.25,1.18,-2.17,3.71,3.71,3.71
9.12,1.23,-2.23,6.02,6.37,6.37
8.98,1.25,-2.27,9.03,9.03,9.17
9.13,1.30,-2.33,10.22,10.64,10.71
9.16,1.33,-2.39,11.27,11.27,11.34
9.04,1.33,-2.37,10.99,10.99,10.99
9.12,1.36,-2.48,9.80,9.24,9.24
9.52,1.45,-2.75,6.51,6.51,6.51
9.84,1.49,-2.91,3.08,2.80,2.80
9.81,1.48,-2.84,0.56,0.21,0.21
9.55,1.38,-2.73,-1.33,-2.10,-2.31
9.49,1.29,-2.75,-4.06,-4.06,-5.39
9.51,1.15,-2.79,-8.47,-8.47,-8.82
9.40,1.13,-2.68,-12.53,-12.53,-12.53
9.47,1.09,-2.62,-14.49,-14.98,-14.98
9.64,1.02,-2.76,-16.38,-16.38,-16.38
9.76,0.97,-3.01,-17.01,-17.01,-17.01
9.60,0.94,-2.99,-16.52,-16.17,-15.96
9.38,0.92,-2.83,-14.35,-14.00,-14.00
9.27,0.85,-2.75,-10.85,-10.43,-10.43
9.30,0.86,-2.80,-6.02,-6.02,-6.02
9.33,0.84,-2.86,-0.56,-0.56,-0.56
9.38,0.75,-2.93,3.43,3.43,3.43
9.41,0.58,-2.94,6.79,6.79,6.79
9.32,0.59,-2.77,10.92,10.92,11.55
9.25,0.56,-2.78,15.05,15.05,15.05
9.28,0.60,-2.82,17.43,17.43,17.43
9.26,0.69,-2.84,18.41,18.69,18.69
9.36,0.86,-2.90,18.90,18.90,18.90
9.46,1.29,-2.96,15.68,15.68,15.68
9.63,1.35,-3.14,12.25,12.25,12.25
9.71,1.29,-3.19,9.52,8.75,8.75
9.42,1.29,-3.06,6.51,6.51,6.51
9.23,1.25,-3.00,3.22,3.22,3.22
9.30,1.25,-3.08,1.12,0.70,0.70
9.32,1.20,-3.17,-1.89,-2.38,-2.38
9.31,1.16,-3.29,-5.32,-5.32,-5.46
9.13,1.10,-3.22,-6.72,-6.72,-6.79
9.10,1.12,-3.05,-7.56,-7.56,-7.56
9.35,1.06,-3.09,-7.84,-7.84,-7.84
9.41,1.01,-3.13,-8.40,-8.40,-8.47
9.38,1.00,-3.10,-8.26,-8.26,-8.33
9.15,1.02,-2.97,-7.56,-7.56,-7.56
8.82,1.12,-2.91,-6.72,-6.72,-6.72
9.04,1.00,-2.92,-4.55,-4.55,-4.55
9.22,0.88,-2.90,-3.71,-3.50,-3.50
9.12,0.86,-2.78,-2.52,-1.82,-1.82
9.14,0.85,-2.81,-0.14,-0.14,-0.14
9.40,0.94,-3.05,1.19,1.19,1.19
9.81,1.02,-3.28,1.33,1.33,1.33
9.82,1.13,-3.27,1.47,1.61,1.61
9.74,1.23,-3.15,1.68,1.82,1.75
9.76,1.30,-3.13,1.40,1.40,1.40
9.52,1.33,-3.16,0.49,0.49,0.00
9.27,1.31,-3.23,-0.56,-0.56,-1.19
8.97,1.29,-3.17,-2.24,-2.24,-2.24
8.74,1.30,-3.04,-3.43,-3.43,-3.78
8.81,1.30,-3.00,-4.76,-4.76,-4.76
8.94,1.26,-2.97,-6.86,-7.07,-7.07
9.23,1.21,-2.91,-8.61,-8.61,-8.61
9.28,1.16,-2.74,-9.66,-9.66,-9.66
9.37,1.14,-2.65,-10.01,-10.08,-10.08
9.40,1.18,-2.62,-10.57,-10.57,-10.71
9.34,1.18,-2.57,-10.78,-10.78,-10.78
9.34,1.19,-2.69,-11.34,-11.34,-11.34
9.40,1.21,-2.74,-11.48,-11.48,-11.55
9.39,1.21,-2.75,-11.76,-11.76,-11.76
9.45,1.23,-2.66,-11.55,-11.55,-11.55
9.65,1.23,-2.75,-11.34,-11.48,-11.48
10.03,1.31,-2.81,-11.62,-11.62,-11.83
10.03,1.71,-2.86,-12.25,-12.25,-12.32
9.93,1.81,-2.74,-14.00,-14.00,-14.00
9.64,1.74,-2.55,-16.03,-16.03,-16.03
9.41,1.79,-2.31,-16.73,-16.73,-16.73
9.03,1.79,-2.06,-16.31,-16.31,-16.31
8.84,1.91,-1.90,-15.61,-15.19,-15.19
9.04,2.24,-1.98,-14.56,-14.56,-14.42
9.14,2.23,-1.84,-15.19,-15.19,-15.19
9.08,2.00,-1.71,-16.03,-16.31,-16.31
9.27,1.94,-1.75,-17.64,-17.64,-17.92
9.78,1.82,-2.18,-20.30,-20.30,-20.44
9.81,1.75,-2.25,-21.21,-21.21,-21.21
9.66,1.74,-2.22,-20.79,-20.79,-20.79
9.86,1.69,-2.37,-19.81,-19.60,-19.60
9.90,1.79,-2.33,-18.69,-18.62,-18.62
9.77,1.74,-2.19,-17.15,-17.15,-16.73
9.48,1.62,-2.12,-15.61,-15.05,-14.77
9.41,1.70,-1.95,-13.44,-13.44,-12.67
9.70,1.79,-2.14,-11.34,-11.34,-11.20
10.53,1.89,-2.01,-10.29,-10.29,-10.08
11.22,2.61,-1.61,-9.31,-9.31,-9.24
11.76,2.94,-1.07,-10.08,-10.08,-10.08
12.54,3.37,-0.63,-15.96,-17.08,-17.08
12.68,4.14,-0.14,-29.26,-29.26,-30.87
13.50,4.37,-0.06,-44.31,-44.31,-44.31
13.86,4.57,0.50,-62.65,-64.40,-64.40
13.43,5.11,0.86,-72.73,-75.95,-77.49
13.67,5.16,1.68,-87.78,-87.78,-89.32
13.73,5.00,2.52,-113.05,-113.05,-113.05
13.10,4.47,3.21,-123.20,-123.20,-124.32
12.29,4.19,4.21,-133.49,-133.49,-133.49
11.36,3.64,4.60,-138.88,-140.35,-140.35
10.92,2.78,5.10,-143.43,-143.43,-143.99
10.36,2.32,5.63,-144.83,-144.83,-144.83
9.54,1.81,6.06,-146.16,-146.44,-146.44
7.75,1.23,6.16,-149.38,-149.94,-149.94
6.55,0.43,6.79,-154.35,-154.35,-154.56
6.62,0.09,7.39,-154.91,-154.91,-155.05
6.31,0.05,7.35,-157.08,-157.08,-157.08
7.21,-0.53,7.84,-160.23,-160.37,-160.37
7.59,-1.51,8.26,-158.20,-157.78,-157.78
7.50,-2.15,8.12,-154.98,-153.02,-153.02
7.09,-2.52,8.04,-148.68,-147.70,-145.46
6.18,-3.76,7.63,-135.10,-135.10,-133.14
4.62,-4.04,7.00,-118.02,-118.02,-115.50
0.69,-4.26,5.89,-79.52,-79.52,-79.52
-1.00,-3.95,5.53,-71.33,-68.88,-68.88
-2.58,-4.15,5.10,-62.16,-62.16,-59.71
-3.66,-3.71,4.76,-50.54,-50.54,-50.54
-3.63,-3.33,4.61,-42.84,-42.84,-42.84
-3.95,-3.36,4.22,-31.43,-29.96,-29.96
-4.53,-3.50,3.99,-19.32,-19.32,-19.32
-4.98,-3.36,3.77,-5.60,-3.92,-3.92
-5.59,-2.77,3.28,5.53,6.93,6.93
-5.69,-2.38,3.24,15.19,16.80,17.57
-5.79,-1.32,3.11,20.58,20.58,20.58
-6.03,-0.99,2.89,21.49,21.49,21.49
-6.99,-0.36,2.75,20.30,19.95,19.95
-7.55,0.85,2.83,13.58,12.32,12.32
-7.05,1.29,2.87,1.54,0.00,0.00
-7.43,0.96,2.93,-7.91,-8.96,-8.96
-7.61,1.32,2.89,-15.05,-15.05,-15.82
-7.20,1.92,3.48,-21.63,-21.63,-22.61
-7.46,2.21,3.47,-32.06,-32.06,-32.06
-7.80,2.33,3.48,-37.94,-39.90,-39.90
-7.97,1.84,3.98,-44.59,-44.59,-44.87
-8.37,1.83,3.78,-45.01,-45.01,-45.01
-9.28,2.39,4.16,-43.89,-43.89,-43.89
-9.55,2.46,3.95,-42.70,-42.49,-42.49
-9.30,2.12,3.94,-38.92,-38.92,-38.43
-8.84,1.79,4.13,-35.00,-33.53,-33.53
-7.69,1.57,4.35,-15.33,-15.33,-15.33
-7.10,1.58,4.70,-7.42,-7.42,-7.42
-7.60,1.90,4.66,-0.63,-0.28,-0.28
-7.52,2.30,4.61,0.91,0.91,0.77
-7.76,2.56,4.90,-1.33,-1.33,-1.89
-8.42,2.71,4.76,-8.12,-8.12,-8.12
-8.58,2.68,4.63,-13.65,-13.65,-13.65
-8.48,2.28,4.52,-19.53,-19.53,-19.53
-8.36,2.22,4.42,-22.12,-23.24,-23.24
-9.71,2.26,4.20,-26.25,-27.30,-27.30
-10.48,1.93,4.16,-30.03,-30.59,-31.50
-9.39,1.55,4.16,-34.23,-34.58,-34.58
-8.49,0.69,4.27,-18.62,-18.62,-18.62
-8.17,0.73,4.60,-8.26,-7.14,-7.14
-9.01,1.56,4.86,-1.96,0.14,0.14
-7.96,2.35,4.94,2.24,2.24,2.24
-6.12,2.57,4.96,4.55,5.11,5.11
-4.87,2.69,4.82,10.71,10.71,10.71
-5.32,3.05,5.34,15.89,15.96,15.96
-5.62,3.53,5.68,14.00,13.44,13.44
-5.92,3.37,5.63,7.35,7.35,7.00
-6.27,3.01,5.69,5.39,5.39,5.39
-6.24,3.16,5.58,3.01,3.01,3.01
-6.49,3.65,5.52,-1.68,-1.68,-1.68
-6.99,3.43,5.16,-10.71,-10.71,-10.71
-7.06,3.22,4.62,-17.78,-18.62,-18.62
-7.56,2.88,4.52,-24.92,-25.20,-25.20
-8.01,2.52,4.00,-26.39,-26.25,-26.25
-6.13,2.29,3.61,-26.39,-26.74,-27.02
-7.19,2.48,3.57,-30.31,-30.31,-30.31
-6.81,1.81,3.01,-32.48,-32.27,-32.27
-6.46,1.37,2.72,-30.66,-30.03,-28.49
-6.06,0.64,2.48,-20.02,-20.02,-18.48
-5.69,0.25,2.16,-7.49,-7.49,-5.88
-5.24,-0.55,2.14,7.77,7.77,7.77
-2.52,-0.91,2.34,17.71,17.71,17.71
1.76,-1.54,3.21,36.54,36.54,36.40
3.93,-1.99,3.47,32.06,32.06,32.06
4.41,-2.08,2.74,30.31,30.59,30.59
7.63,-2.55,3.02,25.27,23.38,23.38
9.46,-2.46,3.33,3.92,3.92,2.38
7.90,-2.20,2.25,-2.17,-2.17,-2.03
8.21,-2.77,3.02,-3.92,-3.92,-5.25
12.68,-2.85,3.48,-19.81,-19.81,-19.81
12.40,-2.01,2.24,-44.03,-45.22,-45.22
10.25,-2.49,0.92,-42.07,-40.46,-40.46
12.59,-3.31,1.23,-31.85,-31.29,-31.29
15.34,-3.64,0.91,-37.52,-37.52,-39.06
13.46,-3.28,0.11,-44.66,-45.36,-45.15
11.96,-2.98,-1.35,-40.39,-40.39,-35.77
15.08,-2.40,-1.78,-14.21,-14.21,-12.53
14.50,-1.25,-3.94,5.74,5.74,5.74
13.97,0.04,-4.72,20.09,24.71,24.71
14.20,0.47,-4.78,37.17,37.17,40.32
14.61,1.93,-5.07,49.00,49.00,50.05
14.94,3.12,-6.30,60.13,60.13,60.13
13.23,3.54,-6.80,69.93,69.93,69.93
13.54,4.55,-7.30,73.01,72.38,72.38
14.47,4.88,-6.92,60.62,58.45,58.45
15.01,4.87,-6.15,37.24,37.24,34.58
14.59,5.21,-4.96,18.06,18.06,18.06
14.17,9.48,-3.36,-38.85,-38.85,-38.85
13.22,8.10,-3.59,-84.07,-89.46,-89.46
12.17,7.10,-3.86,-124.46,-128.87,-128.87
11.11,5.20,-4.58,-150.36,-150.36,-153.09
10.81,3.69,-5.22,-162.89,-163.17,-163.17
9.85,2.34,-4.58,-155.54,-155.54,-155.54
9.10,1.56,-3.39,-137.20,-134.75,-134.75
8.64,0.87,-2.56,-116.55,-113.89,-113.89
7.61,0.14,-1.97,-100.80,-93.38,-93.38
7.08,-0.31,-1.19,-77.70,-77.70,-77.70
6.99,-0.43,-0.85,-63.14,-63.14,-59.92
6.60,-0.41,-0.66,-49.35,-47.81,-47.81
7.17,-0.11,-0.97,-35.14,-35.14,-33.81
7.72,0.22,-1.11,-25.20,-25.20,-25.20
7.96,1.04,-1.21,-12.39,-10.71,-10.71
8.29,1.90,-1.41,16.38,0.49,4.69
8.12,2.79,-1.68,15.33,17.50,17.50
8.45,3.50,-2.11,37.10,39.13,39.13
9.16,4.46,-2.72,68.18,68.18,68.18
9.61,5.54,-2.59,62.30,62.30,62.30
9.90,5.34,-2.40,50.05,50.05,50.05
9.90,4.77,-2.37,42.77,40.18,40.18
9.79,4.15,-2.44,31.50,31.50,31.50
10.09,3.68,-2.63,24.50,24.50,24.50
10.50,3.38,-2.57,20.23,18.69,18.69
11.10,3.36,-2.68,15.82,15.26,15.26
10.49,3.15,-2.45,14.42,14.42,14.70
10.20,2.66,-1.71,16.52,16.94,16.94
9.68,2.05,-1.03,20.79,20.79,21.21
10.40,1.84,-1.11,24.43,25.83,26.81
9.99,1.22,-0.96,31.64,32.62,32.62
9.40,0.64,-0.70,38.99,39.62,39.62
8.64,0.39,-0.27,42.35,42.70,42.70
8.38,0.41,-0.26,43.89,43.89,43.89
7.78,0.53,-0.24,44.17,44.17,44.17
7.81,0.50,-0.33,43.40,43.40,43.40
8.24,0.83,-0.49,42.63,42.63,42.63
8.60,1.15,-0.65,41.44,41.23,41.23
8.88,1.81,-0.91,38.36,37.94,37.94
9.00,1.69,-0.99,34.02,33.46,33.46
8.77,1.12,-0.97,30.59,29.12,29.12
8.84,0.49,-1.18,26.60,26.60,26.60
8.55,-0.18,-1.28,26.04,26.11,26.11
9.70,-0.66,-1.39,29.19,29.75,29.75
10.36,-0.86,-1.63,32.76,34.65,34.65
10.73,-0.95,-2.03,38.29,38.29,38.85
10.83,-0.83,-1.88,42.14,42.14,42.14
10.47,-0.91,-1.60,43.19,43.26,43.26
10.27,-0.98,-1.50,43.19,43.19,43.19
10.26,-0.22,-1.64,40.39,40.39,40.39
10.23,0.60,-1.65,36.54,36.54,36.54
9.85,1.22,-1.66,31.99,31.22,31.22
9.93,1.30,-1.88,23.24,23.24,22.26
9.27,1.27,-1.79,16.38,16.38,16.38
8.71,1.04,-1.78,8.40,7.70,7.70
8.97,0.52,-1.94,3.50,3.50,3.50
9.09,0.04,-2.06,-0.42,-0.42,-0.56
9.68,-0.55,-2.41,-1.19,-1.19,-1.19
9.18,-0.89,-2.05,1.19,1.19,1.19
8.65,-1.12,-1.90,4.06,4.06,4.06
8.72,-1.29,-1.93,5.39,5.53,5.53
8.80,-1.33,-1.95,5.18,4.69,4.69
9.60,-1.53,-2.34,3.43,3.43,3.43
9.99,-1.53,-2.43,2.94,2.94,2.94
9.72,-1.37,-2.19,3.85,3.85,3.85
9.93,-1.08,-2.22,3.57,3.57,3.57
10.48,-0.84,-2.34,0.56,0.14,0.14
10.61,-0.75,-2.38,-3.15,-3.78,-3.78
10.68,-0.78,-2.48,-6.51,-7.07,-7.07
10.59,-0.76,-2.59,-10.92,-10.92,-11.13
10.26,-0.80,-2.61,-12.67,-13.02,-13.37
9.67,-0.75,-2.50,-13.72,-13.79,-13.79
9.31,-0.73,-2.47,-13.79,-13.79,-13.72
9.31,-0.77,-2.59,-13.30,-13.30,-13.30
9.17,-0.83,-2.53,-13.02,-13.02,-13.02
8.87,-0.82,-2.33,-11.83,-11.83,-11.83
9.20,-0.65,-2.33,-9.45,-9.45,-9.45
9.03,-0.47,-2.21,-8.82,-8.75,-8.75
9.40,-0.44,-2.35,-8.96,-8.96,-9.03
9.37,-0.23,-2.22,-9.17,-9.17,-9.03
9.44,0.03,-2.24,-9.10,-9.10,-9.10
9.56,0.26,-2.20,-9.59,-9.59,-9.59
9.96,0.40,-2.33,-10.01,-10.29,-10.29
9.60,0.49,-2.13,-10.29,-10.29,-10.29
9.30,0.45,-1.93,-10.29,-10.29,-10.36
9.16,0.29,-1.90,-11.27,-11.27,-11.20
9.24,0.16,-1.89,-12.95,-13.09,-13.09
9.36,0.05,-1.98,-14.98,-14.98,-15.26
9.62,-0.09,-2.09,-16.31,-16.31,-16.17
9.80,-0.12,-2.09,-16.38,-16.31,-16.24
9.78,-0.08,-2.01,-15.82,-15.82,-15.40
9.94,-0.05,-2.05,-15.05,-15.05,-15.05
9.93,-0.00,-2.20,-15.19,-15.19,-15.19
10.02,0.03,-2.24,-15.75,-15.75,-15.75
10.02,-0.02,-2.29,-15.75,-15.75,-15.61
9.54,-0.16,-2.23,-14.98,-14.63,-14.42
9.34,-0.29,-2.26,-13.37,-13.37,-13.37
9.57,-0.49,-2.53,-11.34,-11.34,-11.34
9.60,-0.56,-2.55,-9.10,-9.10,-9.10
9.55,-0.63,-2.57,-6.58,-6.09,-6.09
9.51,-0.67,-2.53,-1.40,-1.40,-0.77
9.40,-0.66,-2.46,2.24,3.50,4.20
9.24,-0.65,-2.46,8.12,8.82,8.82
9.31,-0.65,-2.63,13.72,13.72,14.21
9.26,-0.55,-2.69,16.17,17.08,17.43
9.14,-0.38,-2.61,19.39,19.39,19.60
9.38,-0.35,-2.74,20.72,20.72,21.00
9.50,-0.28,-2.71,21.35,21.56,21.56
9.36,-0.06,-2.57,21.56,21.42,21.28
9.40,0.10,-2.53,19.95,19.95,19.95
9.70,0.15,-2.71,17.22,17.22,17.22
9.74,0.15,-2.77,14.49,14.21,14.21
9.31,0.28,-2.59,11.27,10.64,10.50
9.45,0.33,-2.68,8.61,8.61,7.21
9.56,0.42,-2.77,4.76,4.76,4.34
9.82,0.48,-2.79,-0.56,-0.56,-1.12
9.87,0.46,-2.64,-4.69,-4.69,-5.25
9.65,0.41,-2.45,-8.33,-8.33,-8.75
9.73,0.28,-2.53,-11.41,-11.41,-11.76
9.72,0.22,-2.51,-12.81,-13.02,-13.23
9.47,0.14,-2.48,-13.37,-13.37,-13.30
9.16,0.16,-2.51,-12.46,-12.46,-12.46
9.06,0.22,-2.59,-11.41,-11.41,-11.41
9.04,0.23,-2.70,-9.87,-9.87,-9.87
8.81,0.26,-2.53,-8.40,-8.40,-8.40
8.69,0.34,-2.44,-7.63,-7.56,-7.56
8.86,0.32,-2.42,-7.35,-7.35,-7.35
9.27,0.26,-2.51,-7.00,-7.00,-7.00
9.49,0.20,-2.51,-6.16,-6.16,-6.16
9.53,0.14,-2.51,-5.04,-5.04,-5.04
9.57,-0.02,-2.70,-4.41,-4.41,-4.41
9.79,-0.25,-2.87,-3.22,-3.15,-3.15
9.96,-0.34,-2.96,-2.10,-1.89,-1.89
9.94,-0.27,-2.87,-0.84,-0.07,-0.07
9.64,-0.11,-2.61,1.05,1.68,1.68
9.65,0.11,-2.52,1.75,1.68,1.47
9.93,0.33,-2.71,-0.84,-0.84,-0.84
10.04,0.46,-2.90,-5.67,-6.09,-6.09
9.39,0.31,-2.62,-12.32,-12.32,-12.32
9.41,0.10,-2.72,-12.95,-13.09,-13.09
9.24,-0.15,-2.77,-12.74,-12.39,-12.39
9.04,-0.36,-2.76,-11.06,-11.06,-11.06
8.95,-0.58,-2.78,-8.05,-8.05,-8.05
8.97,-0.67,-2.80,-5.60,-5.18,-5.18
8.99,-0.63,-2.83,-1.47,-1.47,0.14
9.13,-0.58,-2.87,4.06,4.06,4.06
9.15,-0.48,-2.80,9.31,9.31,9.31
9.15,-0.37,-2.79,12.95,12.95,12.95
9.24,-0.25,-2.85,15.05,15.54,15.54
9.52,-0.13,-3.01,17.29,17.29,17.50
9.62,-0.03,-3.04,18.76,18.76,18.76
9.61,0.06,-2.90,19.18,19.18,19.18
9.65,0.11,-2.86,18.27,18.27,18.27
9.58,0.09,-2.90,17.29,16.94,16.59
9.65,-0.07,-3.04,15.05,14.91,14.91
9.51,-0.19,-3.07,14.00,14.00,14.00
9.22,-0.21,-2.90,14.14,14.14,14.28
9.20,-0.19,-2.93,14.35,14.35,14.35
9.41,-0.04,-3.10,13.51,13.51,13.51
9.39,0.11,-3.03,11.90,11.90,11.90
9.39,0.22,-3.03,10.36,9.66,9.66
9.50,0.31,-3.08,7.42,7.07,7.07
9.31,0.34,-3.01,5.11,4.69,4.48
9.25,0.28,-3.01,2.59,2.59,2.59
9.28,0.23,-3.06,0.84,0.70,0.70
9.21,0.19,-3.07,-1.19,-1.19,-1.26
9.08,0.14,-3.07,-1.89,-1.89,-1.89
9.15,0.03,-3.10,-2.17,-2.17,-2.17
9.24,-0.02,-3.14,-1.75,-1.75,-1.75
9.19,-0.11,-3.14,-0.42,-0.42,-0.42
9.14,-0.23,-3.11,1.61,1.61,1.61
9.31,-0.31,-3.22,3.50,4.06,4.06
9.35,-0.23,-3.24,6.16,6.16,6.37
9.54,-0.16,-3.29,8.61,8.61,8.61
9.31,-0.02,-3.14,10.71,10.71,10.71
9.42,0.14,-3.18,11.20,11.06,11.06
9.51,0.27,-3.25,10.29,10.29,10.29
9.46,0.17,-3.24,7.49,7.07,7.07
9.34,0.01,-3.21,6.58,6.65,6.58
9.14,-0.07,-3.14,6.44,6.37,6.51
9.09,-0.07,-3.10,6.44,6.44,6.44
9.24,-0.05,-3.20,6.02,6.02,6.02
9.23,0.11,-3.16,4.27,4.27,4.06
9.22,0.22,-3.20,2.10,2.10,1.61
9.25,0.25,-3.11,-0.35,-0.35,-0.70
9.30,0.23,-3.17,-2.66,-2.66,-2.94
9.40,0.18,-3.24,-4.69,-4.69,-4.97
9.53,0.06,-3.34,-6.09,-6.37,-6.51
9.29,-0.01,-3.27,-6.86,-6.86,-6.86
9.04,-0.04,-3.15,-5.67,-5.32,-5.32
9.08,0.01,-3.20,-4.27,-4.06,-3.78
9.20,0.14,-3.31,-3.29,-3.29,-3.29
9.18,0.24,-3.26,-3.43,-3.43,-3.43
9.31,0.22,-3.33,-3.99,-4.06,-4.06
9.30,0.17,-3.24,-3.99,-3.99,-3.99
9.26,0.15,-3.22,-3.64,-3.64,-3.64
9.29,0.16,-3.17,-3.57,-3.43,-3.43
9.45,0.30,-3.24,-3.71,-3.71,-3.64
9.22,0.34,-3.09,-3.64,-3.57,-3.50
9.05,0.32,-3.01,-3.36,-3.36,-3.36
9.18,0.27,-3.13,-3.50,-3.50,-3.71
9.19,0.22,-3.17,-3.92,-3.92,-3.99
9.24,0.27,-3.11,-5.04,-5.04,-5.04
9.38,0.38,-3.12,-5.95,-5.95,-5.95
9.36,0.46,-3.05,-7.21,-7.42,-7.42
9.09,0.53,-2.98,-8.26,-8.75,-8.75
8.99,0.56,-2.93,-10.29,-10.50,-10.50
9.13,0.52,-2.99,-11.62,-12.11,-12.11
9.27,0.37,-3.13,-13.16,-13.23,-13.58
9.36,0.23,-3.24,-13.93,-14.07,-14.00
9.54,0.09,-3.34,-14.00,-13.86,-13.86
9.50,0.04,-3.27,-12.39,-12.18,-12.18
9.44,0.12,-3.24,-10.85,-10.85,-10.85
9.46,0.17,-3.18,-8.96,-8.96,-8.96
9.43,0.17,-3.16,-8.26,-8.12,-8.12
9.34,0.20,-3.13,-7.49,-7.49,-7.49
9.43,0.27,-3.26,-7.56,-7.56,-7.56
9.33,0.43,-3.27,-7.77,-7.77,-7.77
9.14,0.53,-3.18,-8.61,-8.75,-8.96
9.02,0.66,-3.11,-10.08,-10.29,-10.29
9.10,0.82,-3.11,-13.72,-14.14,-14.14
9.19,0.86,-3.12,-17.78,-18.20,-18.20
9.41,0.79,-3.22,-21.35,-21.35,-21.35
9.46,0.77,-3.20,-25.90,-25.90,-25.90
9.39,0.72,-3.10,-28.00,-28.56,-28.56
9.30,0.53,-3.00,-29.82,-29.82,-30.10
9.20,0.47,-2.99,-31.22,-31.22,-31.22
9.24,0.47,-3.00,-31.99,-31.99,-32.27
9.32,0.48,-3.03,-33.11,-33.11,-33.11
9.41,0.38,-3.13,-33.74,-33.74,-33.74
9.41,0.27,-3.14,-33.25,-33.25,-33.25
9.31,0.15,-3.00,-30.73,-30.38,-30.38
9.16,0.08,-2.91,-27.23,-27.23,-27.23
9.13,-0.05,-2.95,-23.80,-22.33,-22.33
9.24,-0.15,-2.95,-19.04,-19.04,-19.04
9.25,-0.17,-2.95,-15.12,-15.12,-15.12
9.36,0.03,-2.92,-11.62,-11.13,-10.36
9.53,0.39,-2.90,-7.70,-7.70,-7.28
9.68,0.57,-2.95,-5.60,-5.60,-5.60
9.68,0.62,-2.93,-5.25,-5.25,-5.25
9.60,0.51,-2.87,-4.76,-4.55,-4.55
9.38,0.41,-2.79,-2.73,-2.73,-2.52
9.11,0.36,-2.71,-0.98,-0.28,0.00
8.82,0.29,-2.71,1.68,1.96,1.96
8.78,0.26,-2.82,2.80,2.80,2.94
8.90,0.22,-2.98,1.89,1.89,1.61
9.18,0.22,-3.06,-0.42,-0.42,-0.70
9.32,0.27,-2.98,-3.29,-3.29,-3.57
9.39,0.25,-2.95,-5.60,-6.44,-6.93
9.70,0.15,-3.01,-12.95,-12.95,-12.95
9.55,0.14,-2.78,-15.05,-15.05,-15.05
9.35,0.20,-2.62,-14.77,-14.77,-14.77
9.17,0.24,-2.45,-13.65,-13.65,-13.02
9.13,0.23,-2.35,-10.36,-10.36,-10.36
9.41,0.13,-2.46,-6.37,-5.95,-5.95
9.63,0.03,-2.50,-2.87,-0.70,-0.70
9.66,-0.09,-1.24,5.39,5.39,5.39
9.76,-0.17,-2.45,12.81,12.81,13.79
9.85,-0.20,-2.44,21.14,21.14,21.14
9.79,-0.15,-2.44,25.34,26.53,26.53
9.69,-0.19,-2.56,29.82,30.52,30.52
9.67,-0.26,-2.63,33.11,33.11,33.88
9.60,-0.38,-2.73,35.98,35.98,36.68
9.46,-0.57,-2.85,39.69,39.69,39.69
9.31,-0.57,-2.96,42.77,43.05,43.05
9.27,-0.46,-3.06,44.45,44.94,44.94
9.25,-0.33,-3.07,45.64,45.71,45.71
9.32,-0.20,-3.22,45.29,45.29,45.29
9.35,-0.09,-3.35,43.61,43.61,43.61
9.41,0.01,-3.46,40.67,39.90,39.90
9.37,0.04,-3.50,37.66,36.82,36.82
9.27,0.08,-3.55,34.02,34.02,33.81
9.11,0.07,-3.45,30.94,30.94,30.94
8.68,0.07,-3.31,29.96,29.61,29.61
8.50,0.16,-3.27,28.56,28.56,28.42
8.52,0.24,-3.43,25.90,25.90,25.90
8.66,0.38,-3.56,23.59,22.68,22.68
8.70,0.60,-3.57,19.32,18.83,18.83
8.92,0.93,-3.48,14.14,14.14,11.55
9.24,1.16,-3.41,4.55,4.55,4.55
9.42,1.25,-3.31,-4.62,-5.88,-5.88
9.67,1.12,-3.29,-14.28,-14.28,-14.28
9.91,0.85,-3.46,-23.03,-23.03,-23.03
10.27,0.46,-3.74,-30.80,-31.50,-31.50
10.05,0.16,-3.67,-35.00,-35.28,-35.28
9.47,-0.32,-3.66,-35.35,-34.79,-34.79
9.35,-0.43,-3.63,-33.53,-32.48,-32.48
9.12,-0.37,-3.53,-31.08,-30.17,-30.17
8.96,-0.23,-3.40,-29.12,-28.91,-28.77
8.74,0.19,-3.16,-30.10,-30.38,-30.66
8.78,0.14,-3.14,-31.43,-31.50,-31.50
9.04,0.04,-3.19,-32.97,-32.97,-32.97
9.17,-0.04,-3.19,-33.32,-33.32,-33.32
9.20,-0.18,-3.11,-33.32,-33.25,-33.25
9.17,-0.41,-3.04,-32.27,-32.27,-31.99
9.28,-0.59,-3.13,-30.38,-30.17,-30.17
9.43,-0.71,-3.15,-27.72,-27.72,-27.02
9.42,-0.70,-3.06,-23.59,-23.59,-23.59
9.48,-0.74,-3.07,-19.25,-18.76,-18.76
9.48,-0.77,-3.08,-15.82,-13.93,-13.93
9.32,-0.67,-2.96,-11.06,-10.36,-9.24
9.36,-0.53,-2.93,-6.51,-6.02,-5.04
9.36,-0.51,-2.97,-2.73,-2.24,-2.24
9.30,-0.54,-3.04,2.31,2.94,2.94
9.18,-0.58,-3.07,6.16,6.16,6.51
9.13,-0.60,-3.09,11.41,11.41,11.41
8.93,-0.51,-3.03,14.56,14.56,14.56
8.98,-0.26,-3.06,17.43,17.43,17.43
9.12,-0.14,-3.04,17.78,17.85,17.85
9.27,0.01,-3.05,17.22,17.08,17.08
9.33,0.11,-3.06,15.68,15.47,15.47
9.28,0.11,-3.01,13.93,13.72,13.72
9.27,0.10,-3.02,11.76,11.76,11.62
9.32,0.07,-3.06,10.57,10.08,9.94
9.31,-0.00,-2.97,8.89,8.68,8.40
9.38,-0.11,-3.00,7.70,7.70,7.28
9.35,-0.22,-2.94,6.86,6.86,6.86
9.40,-0.32,-2.95,6.86,6.86,6.93
9.56,-0.38,-3.07,7.00,7.00,7.14
9.82,-0.35,-3.13,7.35,7.35,7.42
9.68,-0.20,-3.01,7.42,7.49,7.63
9.59,-0.09,-3.03,7.77,7.77,7.84
9.33,-0.03,-3.08,8.26,8.26,8.26
9.06,0.05,-3.10,8.82,8.82,8.82
8.93,0.10,-3.14,8.89,8.82,8.82
9.00,-0.03,-3.26,8.89,9.03,9.03
9.14,-0.31,-3.44,9.94,9.94,10.50
8.95,-0.44,-3.34,18.34,18.34,18.34
9.11,-0.29,-3.46,21.28,21.28,21.28
9.43,0.01,-3.59,21.91,21.84,21.84
9.46,0.27,-3.58,20.86,20.86,20.86
9.28,0.43,-3.42,18.20,18.20,18.20
9.27,0.50,-3.24,14.56,14.56,14.56
9.42,0.48,-3.28,9.80,9.80,9.80
9.68,0.42,-3.33,4.06,4.06,4.06
9.85,0.32,-3.37,-0.07,-0.77,-0.77
9.73,0.17,-3.28,-4.48,-4.97,-4.97
9.59,0.02,-3.20,-7.28,-7.28,-7.42
9.25,-0.02,-3.16,-7.63,-7.63,-7.56
8.94,1.22,-3.02,-7.35,-7.35,-7.21
8.85,0.01,-3.06,-6.72,-6.72,-6.72
8.78,0.03,-3.14,-6.23,-6.23,-6.23
8.65,-0.00,-3.27,-5.32,-5.32,-5.32
8.74,-0.06,-3.38,-4.20,-4.20,-4.20
8.74,-0.03,-3.40,-2.10,-2.10,-2.10
8.83,0.04,-3.44,-1.54,-1.54,-1.54
9.19,0.19,-3.35,-1.75,-1.89,-1.89
9.63,0.37,-3.36,-3.22,-3.22,-3.92
10.19,0.45,-3.68,-6.44,-6.44,-6.44
10.62,1.08,-3.83,-12.53,-12.53,-12.53
10.22,1.23,-3.61,-18.55,-18.55,-18.55
9.93,1.21,-3.52,-24.08,-26.04,-26.04
9.59,1.31,-3.40,-33.67,-33.67,-33.67
9.44,1.28,-3.38,-44.52,-45.78,-45.78
9.57,1.29,-3.44,-51.66,-53.97,-54.95
9.04,1.49,-3.12,-66.29,-66.29,-68.39
9.04,1.18,-2.89,-71.33,-71.33,-72.17
8.64,0.92,-2.59,-74.69,-74.69,-74.69
8.42,0.57,-2.31,-75.11,-75.11,-74.97
8.39,0.22,-2.25,-73.57,-73.57,-73.57
8.59,-0.18,-2.36,-68.95,-68.95,-68.95
8.57,-0.65,-2.35,-64.33,-62.37,-62.37
8.78,-0.83,-2.23,-56.00,-56.00,-53.76
9.18,-0.74,-2.13,-45.71,-45.71,-44.66
9.16,-0.67,-1.83,-34.72,-34.72,-34.72
9.40,-0.76,-1.69,-28.84,-27.93,-27.93
9.67,-0.88,-1.63,-13.58,-13.58,-12.32
9.63,-0.87,-1.66,-4.97,-4.97,-1.54
9.57,-0.82,-1.67,3.64,3.64,6.51
9.74,-0.60,-1.50,10.64,11.41,11.41
10.04,-0.51,-1.38,17.15,17.15,17.64
10.17,-0.69,-1.51,20.16,21.00,21.42
10.16,-0.90,-1.70,23.73,24.29,24.29
9.94,-1.11,-2.03,28.49,28.98,28.98
9.67,-1.19,-2.09,32.55,33.11,33.11
9.52,-1.29,-2.19,36.47,37.10,37.10
9.43,-1.23,-2.25,41.51,41.51,41.93
9.35,-1.05,-2.36,43.96,44.59,44.94
9.34,-0.85,-2.53,46.27,46.55,46.83
9.34,-0.60,-2.63,47.53,47.53,47.81
9.39,-0.25,-2.55,47.46,47.46,47.39
9.48,-0.21,-2.53,47.11,47.11,46.97
9.65,-0.21,-2.60,47.04,47.04,47.11
9.69,-0.34,-2.65,47.18,47.18,47.18
9.80,-0.43,-2.69,47.74,47.74,47.81
9.93,-0.55,-2.79,48.51,48.51,48.65
9.90,-0.68,-2.75,50.05,50.05,50.19
9.71,-0.72,-2.60,52.29,52.29,52.71
9.70,-0.79,-2.58,54.39,55.09,55.37
9.73,-0.80,-2.74,56.98,56.98,57.82
9.48,-0.66,-2.82,59.15,59.15,59.71
9.23,-0.08,-2.90,59.08,59.08,59.08
9.62,0.10,-3.18,56.21,56.21,56.21
9.52,0.28,-3.13,53.41,53.41,53.41
9.24,0.33,-3.00,50.96,50.40,50.40
8.95,0.33,-2.90,48.72,48.72,48.37
8.90,0.29,-3.01,46.06,46.06,46.06
9.00,0.19,-3.05,44.94,44.94,44.94
9.13,0.07,-3.23,45.50,45.64,45.64
9.13,0.01,-3.26,46.97,47.95,47.95
8.79,-0.03,-3.17,49.84,50.19,50.82
8.90,-0.06,-3.25,52.36,52.64,52.64
9.34,0.00,-3.56,54.95,55.16,55.16
9.32,0.07,-3.52,56.56,56.56,56.56
9.30,0.21,-3.63,58.24,58.24,58.24
9.87,0.40,-3.87,58.66,58.66,58.66
9.61,0.56,-3.59,59.50,59.64,59.64
9.35,1.06,-3.43,60.20,60.20,60.20
8.99,1.57,-3.31,56.84,56.28,56.28
8.57,2.01,-3.25,51.10,50.12,50.12
8.53,2.16,-3.37,39.48,39.48,38.36
9.03,2.14,-3.56,31.15,31.15,31.15
8.97,2.09,-3.58,20.79,19.74,19.74
8.55,1.92,-3.43,14.56,12.04,12.04
8.57,1.64,-3.40,7.63,7.00,7.00
8.63,1.43,-3.48,1.75,1.75,1.26
8.73,1.23,-3.55,-1.12,-2.24,-2.66
9.04,1.02,-3.75,-4.97,-5.74,-6.16
9.22,0.94,-3.89,-8.68,-8.68,-8.68
8.98,0.95,-3.70,-11.13,-11.48,-11.48
9.07,0.98,-3.69,-12.95,-13.23,-13.23
9.31,0.92,-3.87,-16.24,-16.24,-16.52
9.49,0.86,-3.88,-18.62,-18.62,-18.90
9.43,0.92,-3.86,-21.07,-21.07,-21.07
9.24,1.05,-3.71,-23.66,-23.66,-23.66
9.09,1.07,-3.68,-25.27,-25.62,-25.62
9.11,1.11,-3.70,-27.58,-27.58,-27.79
9.25,1.12,-3.75,-30.80,-30.80,-31.08
9.22,1.00,-3.66,-32.97,-32.97,-33.11
8.96,0.86,-3.59,-33.81,-33.81,-33.88
8.72,0.74,-3.43,-34.02,-34.02,-33.95
8.74,0.61,-3.51,-33.32,-33.32,-33.18
8.84,0.52,-3.66,-32.41,-32.41,-32.20
8.93,0.54,-3.60,-31.50,-31.15,-31.08
8.95,0.57,-3.60,-30.24,-30.10,-30.10
8.92,0.61,-3.52,-29.26,-29.26,-29.26
8.98,0.69,-3.46,-28.91,-28.91,-28.91
9.13,0.78,-3.44,-29.26,-29.61,-29.61
9.38,0.87,-3.46,-30.87,-30.87,-30.87
9.46,0.91,-3.46,-33.04,-33.18,-33.18
9.43,0.80,-3.45,-34.23,-34.65,-34.65
9.32,0.63,-3.47,-35.21,-35.21,-35.21
9.08,0.47,-3.42,-34.79,-34.37,-34.37
8.97,0.33,-3.36,-32.48,-32.48,-32.48
8.93,0.29,-3.37,-29.54,-28.70,-28.70
8.96,0.25,-3.45,-26.32,-26.32,-25.41
9.14,0.28,-3.57,-23.24,-23.24,-22.61
9.13,0.34,-3.50,-20.58,-20.58,-20.58
9.07,0.50,-3.38,-18.34,-18.27,-18.27
9.02,0.56,-3.34,-17.22,-17.22,-17.22
9.05,0.61,-3.32,-16.80,-16.80,-16.80
9.27,0.61,-3.42,-17.08,-17.08,-17.08
9.37,0.65,-3.41,-17.22,-17.22,-17.22
9.26,0.75,-3.35,-17.57,-17.57,-17.71
9.20,0.76,-3.29,-18.34,-18.41,-18.41
9.28,0.79,-3.31,-19.53,-19.53,-19.60
9.18,0.86,-3.24,-20.37,-20.58,-20.86
9.19,0.98,-3.16,-21.98,-22.54,-22.89
9.45,1.01,-3.22,-24.57,-25.27,-25.62
9.72,0.93,-3.28,-27.44,-28.00,-28.35
9.69,0.80,-3.34,-29.54,-29.54,-30.03
9.57,0.58,-3.28,-30.03,-30.03,-30.10
9.35,0.24,-3.10,-27.93,-27.93,-27.93
9.06,-0.18,-2.96,-20.44,-19.81,-19.81
9.10,-0.26,-2.99,-16.80,-14.98,-14.98
9.20,-0.11,-3.03,-12.11,-11.76,-10.64
9.32,0.17,-3.06,-7.42,-7.00,-7.00
9.54,0.20,-3.12,-2.45,-1.68,-1.19
9.31,0.13,-3.00,1.96,1.96,2.45
9.18,0.09,-2.97,4.90,5.88,6.23
9.16,0.01,-3.03,8.68,8.68,10.08
9.21,0.01,-3.18,12.88,12.88,13.30
9.19,0.04,-3.22,15.82,15.82,15.82
9.20,0.07,-3.28,19.46,19.81,19.81
9.20,0.07,-3.26,22.75,23.17,23.17
9.13,0.16,-3.20,25.41,25.76,25.76
9.16,0.21,-3.23,27.93,27.93,28.14
9.25,0.22,-3.27,28.70,28.70,28.98
9.32,0.24,-3.20,30.10,30.10,30.10
9.40,0.24,-3.26,30.73,31.01,31.01
9.35,0.28,-3.29,31.64,31.64,31.78
9.31,0.40,-3.26,31.85,31.85,31.85
9.49,0.66,-3.37,30.66,30.66,30.52
9.59,0.88,-3.41,28.28,28.28,27.93
9.47,1.13,-3.02,24.71,24.71,24.71
9.59,1.30,-3.09,21.98,21.98,21.98
9.54,1.35,-2.97,17.64,17.64,17.64
9.31,1.36,-2.92,15.12,14.21,14.21
9.33,1.57,-2.78,11.41,11.41,10.36
9.57,2.00,-2.68,7.14,7.14,7.14
9.71,2.43,-2.48,0.98,0.98,0.98
9.96,2.58,-2.38,-3.29,-3.92,-3.92
10.14,2.59,-2.44,-7.28,-7.77,-7.77
12.08,3.52,-2.06,-15.61,-15.61,-16.17
11.38,3.69,-1.95,-19.04,-19.04,-19.04
10.66,3.58,-1.50,-22.54,-22.54,-22.54
9.70,3.58,-1.27,-23.59,-23.80,-23.80
8.96,3.77,-0.81,-24.43,-24.43,-24.43
8.73,3.80,-0.62,-23.94,-23.94,-23.94
8.23,3.89,-0.02,-21.07,-21.07,-21.07
8.24,4.20,0.56,-17.57,-17.57,-17.57
8.99,4.22,0.82,-15.61,-15.61,-15.61
8.60,4.24,1.35,-11.62,-11.62,-11.62
8.16,4.62,2.05,-8.26,-8.26,-7.70
8.07,4.95,2.58,-4.48,-4.48,-4.48
8.17,4.99,2.78,-4.41,-4.41,-4.41
8.39,5.17,2.85,-8.12,-8.12,-8.12
7.95,4.99,2.79,-13.37,-14.21,-14.21
7.51,4.82,2.83,-21.35,-22.05,-22.05
6.95,4.71,2.96,-25.62,-25.62,-25.62
7.08,4.86,3.25,-29.26,-29.26,-29.26
6.67,4.81,3.62,-29.75,-29.75,-29.75
6.36,4.61,4.00,-28.42,-28.42,-28.21
6.14,4.33,4.23,-25.34,-25.34,-25.34
6.00,4.22,4.44,-22.40,-22.40,-22.40
6.05,4.20,4.53,-20.30,-19.81,-19.81
6.16,4.53,4.82,-17.01,-17.01,-16.73
6.71,5.09,4.94,-16.94,-16.94,-16.87
6.53,4.85,4.85,-17.99,-17.99,-17.99
6.19,4.72,4.79,-18.20,-18.20,-18.20
6.56,4.64,4.65,-18.34,-18.34,-18.34
6.31,4.37,4.58,-16.59,-16.59,-16.59
6.95,4.51,4.66,-14.84,-14.84,-14.84
7.53,4.61,4.71,-12.81,-12.53,-11.76
7.68,4.44,4.50,-9.73,-9.17,-9.17
7.52,4.07,4.31,-4.34,-3.85,-3.85
7.97,4.00,4.13,-1.54,-1.33,-1.33
8.21,3.51,3.93,-1.40,-1.40,-1.40
7.50,3.23,3.65,-2.59,-2.59,-2.94
7.97,3.16,3.18,-5.32,-5.32,-5.32
8.39,3.13,2.92,-6.72,-7.00,-7.00
8.51,2.87,2.36,-7.21,-7.21,-7.21
8.91,2.93,2.18,-7.07,-7.07,-7.07
9.79,3.12,2.05,-8.19,-8.54,-8.54
10.29,3.13,2.04,-11.97,-11.97,-11.97
10.38,3.06,2.14,-18.76,-18.76,-18.76
10.83,3.39,2.32,-23.17,-23.87,-23.87
11.18,3.58,2.45,-28.35,-28.35,-28.35
11.54,3.82,2.78,-33.39,-33.39,-33.39
11.71,4.32,3.50,-40.04,-40.04,-40.04
11.10,4.49,3.80,-47.53,-49.56,-49.56
10.80,4.35,4.08,-55.37,-55.37,-57.26
10.62,4.75,4.75,-63.28,-63.28,-65.52
10.43,5.28,5.86,-73.64,-73.64,-73.64
9.77,5.36,6.14,-97.37,-97.37,-97.37
9.33,4.97,6.14,-109.20,-110.39,-110.39
8.40,4.60,6.22,-116.41,-117.39,-117.39
7.85,4.11,6.48,-123.97,-123.97,-123.97
7.73,3.91,6.95,-130.55,-130.55,-132.30
8.12,3.39,7.29,-138.46,-139.30,-139.30
7.84,3.15,7.69,-147.84,-147.84,-148.75
7.44,2.74,7.79,-153.16,-155.05,-156.17
6.41,2.62,7.93,-163.94,-165.48,-165.48
6.62,2.12,8.17,-177.45,-179.20,-179.20
4.94,1.44,7.59,-192.01,-192.01,-193.20
5.50,0.79,7.36,-199.29,-201.81,-203.00
5.64,-0.31,7.03,-207.62,-207.62,-208.11
4.87,-2.20,6.63,-204.19,-204.19,-202.93
3.46,-3.61,6.49,-185.71,-185.71,-183.33
2.76,-4.25,6.17,-168.21,-168.21,-165.34
1.53,-4.39,5.71,-138.18,-138.18,-138.18
0.22,-4.07,6.15,-119.42,-119.42,-119.42
0.39,-4.75,6.43,-102.69,-97.93,-97.93
0.06,-5.41,6.25,-80.64,-80.64,-73.85
-0.09,-5.44,6.52,-53.48,-53.48,-53.48
0.18,-5.41,6.70,-26.25,-26.25,-26.25
0.00,-5.31,6.47,-7.70,-7.70,-7.70
0.26,-5.09,6.56,5.04,8.89,8.89
1.03,-5.14,6.81,20.30,20.30,24.15
1.41,-4.77,6.56,37.03,38.71,38.71
1.01,-4.26,6.13,51.17,51.17,51.17
0.63,-3.98,6.08,60.90,60.90,62.16
0.21,-3.65,5.98,68.32,70.77,72.03
-0.15,-3.22,5.53,79.59,80.92,80.92
-0.95,-2.89,4.91,94.15,94.15,95.48
-1.34,-2.74,5.44,102.34,102.34,103.25
-0.70,-2.40,5.44,108.36,108.36,108.36
-1.77,-1.92,3.90,116.76,117.88,117.88
1.53,-2.11,4.24,126.91,126.91,126.91
4.06,-1.81,4.06,131.74,131.74,131.74
3.30,-1.30,3.16,126.63,126.63,126.63
4.42,-0.99,2.97,121.17,120.89,120.89
9.05,-0.39,3.06,117.25,116.27,116.27
9.87,-0.01,3.25,102.13,102.13,100.38
8.53,0.25,2.79,93.80,91.77,90.79
9.11,0.59,3.18,86.10,86.10,85.12
11.92,0.93,3.77,67.97,67.97,65.38
12.21,0.72,3.45,48.44,48.44,46.55
10.98,0.39,2.86,40.11,40.11,37.94
12.07,0.21,2.95,35.91,35.91,35.70
12.46,0.11,2.47,31.64,31.64,31.15
12.33,-0.32,2.14,28.91,28.91,28.98
12.09,-0.50,1.88,30.59,30.59,30.87
13.05,-0.22,2.31,31.99,31.99,31.99
13.23,0.22,2.16,27.23,24.99,24.99
13.47,0.34,1.75,18.06,18.06,16.10
13.55,0.47,1.36,11.90,11.90,11.90
12.98,0.42,1.08,9.38,9.38,9.38
12.84,0.62,1.01,8.19,8.19,8.19
12.84,0.63,0.67,5.95,5.95,5.95
12.55,0.43,0.61,3.50,3.50,3.50
11.69,0.46,0.75,0.70,0.56,0.56
12.01,2.33,1.57,-6.72,-9.66,-9.66
13.23,4.57,1.63,-27.37,-38.01,-38.01
12.06,2.70,0.65,-52.64,-59.57,-59.57
10.74,1.38,0.36,-68.46,-69.79,-72.31
10.51,-0.88,0.12,-74.48,-74.06,-74.06
10.79,-0.98,0.05,-70.00,-68.53,-67.83
10.23,-1.17,0.20,-63.42,-61.39,-60.34
9.77,-1.35,0.15,-54.88,-52.36,-51.31
9.92,-1.36,0.00,-45.57,-45.57,-42.21
10.36,-1.22,0.06,-34.23,-34.23,-34.23
10.13,-1.14,0.21,-24.50,-24.50,-24.50
9.80,-1.14,0.23,-12.11,-12.11,-12.11
9.51,-1.08,0.14,-5.32,-3.01,-3.01
9.43,-1.10,-0.06,3.43,5.53,5.53
9.65,-0.98,-0.37,12.53,12.53,13.51
9.55,-0.81,-0.32,20.51,20.51,20.51
9.25,-0.38,-0.33,30.03,30.03,30.03
9.23,0.63,-0.40,33.04,33.32,33.32
9.46,1.30,-0.72,33.67,33.74,33.74
9.48,1.86,-1.00,31.64,31.64,31.29
9.79,2.20,-1.24,28.98,27.86,27.37
10.10,1.96,-1.58,24.57,24.22,24.22
9.77,1.42,-1.51,23.03,23.03,23.10
9.51,0.69,-1.45,25.34,25.34,25.76
9.84,0.36,-1.56,29.33,29.33,30.17
9.88,0.05,-1.55,33.95,33.95,36.54
9.52,-0.15,-1.51,41.02,41.02,41.93
9.60,-0.25,-1.67,49.42,49.42,50.26
9.83,-0.24,-1.79,53.69,55.02,55.65
9.95,-0.22,-2.00,59.43,60.06,60.06
9.82,-0.12,-2.01,65.87,65.87,66.57
9.69,0.11,-1.95,69.51,70.77,71.33
9.65,0.40,-1.99,73.64,73.64,74.62
9.75,0.88,-2.14,75.53,75.53,75.46
9.78,2.07,-2.13,71.40,69.09,67.97
9.73,2.34,-2.31,61.60,58.94,57.61
9.65,2.43,-2.45,47.46,47.46,47.46
9.48,2.34,-2.34,35.14,33.95,33.95
9.23,1.99,-2.26,28.21,26.46,25.62
9.12,1.52,-2.19,22.05,21.35,20.30
9.06,1.07,-2.20,18.27,0.35,17.29
9.18,0.78,-2.25,15.96,15.96,15.33
9.49,0.64,-2.29,14.00,14.00,13.79
9.60,0.77,-2.64,6.79,6.79,6.79
9.63,1.04,-2.68,2.03,1.54,1.54
9.44,1.38,-2.60,-2.38,-3.15,-3.15
9.49,1.61,-2.54,-8.33,-8.33,-9.17
9.76,1.67,-2.70,-16.31,-16.31,-17.08
10.00,1.60,-2.85,-21.91,-21.91,-21.91
10.09,1.62,-2.90,-25.76,-25.76,-25.76
10.14,1.95,-2.68,-31.15,-31.15,-31.15
10.11,1.91,-2.55,-33.53,-33.53,-33.53
10.18,1.76,-2.48,-34.93,-35.00,-35.56
10.17,1.82,-2.43,-36.89,-37.10,-37.10
10.05,2.05,-2.04,-41.30,-42.00,-42.00
10.37,2.10,-1.83,-46.97,-46.97,-47.74
10.52,1.89,-1.75,-53.83,-53.83,-54.74
10.61,2.11,-1.75,-61.88,-61.88,-62.86
10.56,1.96,-1.48,-70.70,-70.70,-71.82
10.45,1.78,-1.43,-78.54,-78.54,-79.66
10.29,1.59,-1.27,-88.27,-88.27,-88.27
9.94,1.44,-1.24,-92.40,-92.40,-92.40
9.82,0.89,-1.04,-96.46,-96.46,-96.46
9.31,0.59,-0.80,-96.18,-96.18,-96.18
8.56,0.21,-0.50,-92.61,-92.61,-92.61
8.47,-0.17,-0.52,-87.85,-85.89,-85.89
8.27,-0.50,-0.49,-77.49,-77.49,-76.02
8.37,-0.27,-0.45,-66.85,-66.85,-64.12
8.37,-0.24,-0.53,-56.84,-56.84,-54.88
8.33,-0.15,-0.55,-49.63,-49.63,-49.63
8.80,0.29,-0.57,-45.29,-45.29,-45.29
9.64,0.96,-0.98,-47.81,-48.51,-48.51
10.20,1.02,-1.17,-52.92,-56.14,-56.14
10.49,1.30,-1.09,-62.30,-62.30,-63.56
10.78,1.56,-0.90,-76.16,-76.16,-77.56
10.85,1.46,-0.68,-87.43,-87.43,-88.69
10.57,1.25,-0.60,-97.58,-97.58,-97.58
10.20,0.81,-0.46,-105.84,-106.61,-106.61
9.82,0.59,-0.29,-109.41,-109.76,-109.76
9.66,0.38,-0.33,-111.58,-111.58,-111.93
9.42,-0.30,-0.14,-113.47,-113.47,-113.47
9.31,-0.58,-0.01,-113.26,-113.26,-113.26
9.37,-0.84,0.31,-111.09,-110.74,-110.74
9.07,-1.42,0.58,-108.43,-107.94,-107.94
8.71,-1.71,0.92,-102.69,-102.69,-102.69
8.70,-2.31,1.05,-92.54,-92.54,-91.21
8.81,-2.78,1.00,-81.27,-81.27,-79.73
8.72,-3.21,1.08,-71.96,-70.42,-68.81
8.65,-3.56,1.30,-54.95,-54.95,-53.06
9.12,-3.80,1.31,-40.67,-40.67,-38.99
9.43,-3.97,1.34,-27.65,-27.65,-25.97
9.69,-3.61,1.48,-18.41,-15.82,-14.56
10.34,-3.43,1.25,-9.10,-8.40,-8.40
10.51,-3.38,1.37,-5.46,-5.46,-5.39
10.27,-3.11,1.59,-5.18,-5.46,-5.53
9.90,-2.96,1.60,-6.16,-6.16,-6.58
9.97,-2.59,1.58,-7.77,-7.77,-7.77
9.92,-2.31,1.45,-10.85,-10.85,-10.85
9.53,-2.27,1.57,-14.21,-14.21,-14.21
9.31,-2.19,1.71,-16.17,-16.17,-16.17
9.41,-2.09,1.56,-18.13,-18.13,-18.13
9.39,-2.21,1.50,-19.95,-19.95,-19.95
9.79,-2.28,1.68,-21.63,-21.63,-21.63
10.42,-2.12,1.50,-24.29,-24.29,-24.29
9.82,-2.23,1.47,-28.00,-28.00,-28.00
8.83,-2.19,1.46,-30.38,-30.38,-30.66
8.53,-2.53,1.34,-31.78,-31.78,-31.78
8.63,-2.92,1.35,-30.03,-30.03,-30.03
8.53,-3.30,1.47,-27.65,-27.65,-27.65
8.30,-3.75,1.44,-22.61,-22.61,-22.61
8.74,-3.98,1.61,-18.06,-18.06,-18.06
9.27,-4.13,1.46,-14.77,-14.14,-14.14
9.40,-4.32,1.28,-12.53,-12.53,-12.04
8.70,-4.20,1.31,-10.36,-10.15,-10.15
8.48,-4.30,0.99,-8.05,-7.70,-7.70
8.12,-4.44,0.93,-5.32,-5.32,-5.04
7.81,-4.70,0.90,-3.57,-2.80,-2.45
7.42,-5.11,0.79,0.49,2.17,3.15
7.58,-5.62,0.48,9.10,9.10,13.72
7.55,-6.16,0.22,25.41,27.51,27.51
7.37,-6.56,0.03,49.07,49.07,49.07
7.21,-6.72,-0.30,70.56,70.56,73.43
7.12,-6.77,-0.49,99.96,99.96,99.96
7.21,-6.50,-0.66,119.91,119.91,119.91
7.53,-6.24,-0.86,159.81,144.06,144.06
8.00,-5.90,-0.99,156.17,159.67,159.67
8.62,-5.38,-1.12,170.94,170.94,170.94
9.04,-4.85,-1.19,181.93,181.93,181.93
9.30,-4.24,-1.15,185.15,185.15,185.15
9.87,-3.18,-1.23,184.03,184.03,184.03
10.16,-2.05,-1.35,175.70,175.70,175.70
10.12,-1.55,-1.20,167.02,167.02,165.41
10.48,-0.74,-0.98,150.64,150.64,145.53
10.75,0.07,-0.89,123.62,123.62,123.62
10.94,0.04,-0.89,104.23,101.50,101.50
11.26,0.26,-0.83,79.24,77.00,77.00
11.10,0.23,-0.68,62.30,60.27,60.27
10.91,0.01,-0.51,48.30,46.27,46.27
10.93,-0.22,-0.50,27.93,27.93,25.90
10.53,-0.61,-0.48,16.52,13.09,11.48
10.27,0.07,-0.57,2.87,-1.05,-2.94
10.28,0.67,-0.96,-13.09,-13.09,-18.55
9.92,0.56,-1.26,-29.96,-29.96,-29.96
9.54,-0.03,-1.26,-38.99,-38.99,-38.99
9.31,-0.85,-1.30,-39.97,-39.48,-39.48
9.07,-2.09,-1.14,-36.05,-36.05,-34.16
9.17,-3.07,-1.01,-27.23,-27.23,-27.23
9.23,-3.71,-0.90,-12.81,-12.81,-12.81
9.24,-4.01,-0.76,-0.63,-0.63,-0.63
9.23,-4.22,-0.66,8.61,8.61,11.62
9.34,-4.22,-0.72,20.37,20.37,23.38
9.37,-4.23,-0.77,31.43,31.43,33.88
9.30,-4.22,-0.75,40.04,41.23,41.23
9.27,-3.98,-0.74,51.24,52.43,52.43
9.34,-3.72,-0.84,58.66,59.29,59.29
9.61,-3.36,-0.82,62.30,62.79,63.56
10.11,-2.72,-0.74,64.33,64.19,64.05
10.31,-2.01,-0.65,61.53,61.53,61.04
10.11,-1.76,-0.56,56.00,56.00,54.25
9.70,-1.78,-0.56,49.07,49.07,49.07
9.65,-2.24,-0.69,41.86,41.86,41.86
9.43,-2.53,-0.63,39.62,39.41,39.41
9.09,-2.72,-0.55,39.34,39.34,39.55
9.08,-2.92,-0.71,40.53,40.88,40.88
8.94,-2.85,-0.82,43.33,43.33,43.68
9.00,-2.33,-1.23,46.20,46.20,46.20
9.22,-2.15,-1.38,45.71,45.36,45.36
9.09,-2.05,-1.46,44.24,44.24,44.17
9.12,-2.07,-1.48,43.19,43.19,43.19
9.49,-2.11,-1.56,42.49,42.21,42.21
9.63,-2.01,-1.52,41.30,41.30,40.88
9.63,-1.70,-1.42,39.34,38.99,38.99
9.79,-1.53,-1.20,35.14,35.14,34.51
9.97,-1.53,-1.18,31.57,30.31,30.31
10.06,-1.51,-1.22,25.76,24.01,24.01
9.83,-1.46,-1.18,18.55,18.55,16.59
9.41,-1.58,-1.09,9.45,9.45,9.45
9.03,-1.79,-1.10,2.17,1.54,1.54
9.38,-1.98,-0.95,-2.94,-2.94,-2.94
9.65,-2.15,-0.94,-5.67,-5.95,-5.95
9.56,-2.04,-0.93,-7.28,-7.42,-7.42
9.71,-1.98,-1.15,-8.40,-8.68,-8.68
9.84,-1.70,-1.39,-10.01,-10.29,-10.29
10.00,-1.53,-1.68,-13.58,-13.58,-14.00
10.49,-1.55,-1.88,-16.73,-16.73,-17.15
10.09,-1.38,-1.64,-21.35,-21.35,-21.35
9.48,-1.41,-1.42,-23.73,-23.73,-23.73
9.51,-1.69,-1.62,-24.99,-24.99,-24.99
9.44,-1.80,-1.73,-25.27,-25.27,-25.27
9.37,-1.75,-1.80,-25.48,-25.48,-25.48
9.41,-1.70,-1.82,-25.55,-25.55,-25.55
9.49,-1.69,-1.87,-25.48,-25.55,-25.41
9.57,-1.76,-1.88,-25.13,-25.20,-25.20
9.61,-1.73,-1.73,-24.57,-24.43,-24.43
9.84,-1.66,-1.56,-24.22,-24.22,-24.22
9.97,-1.66,-1.53,-25.83,-25.83,-25.83
10.08,-1.61,-1.56,-27.79,-28.07,-28.07
10.32,-0.94,-1.33,-31.71,-31.71,-32.34
10.29,-0.24,-1.36,-41.02,-41.02,-42.42
10.59,-0.45,-1.75,-54.88,-54.88,-56.84
10.96,-0.72,-1.93,-71.89,-71.89,-71.89
10.64,-0.68,-1.64,-88.69,-88.69,-106.61
10.09,-0.64,-1.37,-103.04,-103.04,-103.0
9.68,-0.90,-1.28,-114.17,-114.17,-114.17
9.25,-1.39,-1.26,-119.91,-121.52,-121.52
8.92,-1.98,-1.26,-124.25,-124.25,-124.53
8.69,-2.88,-1.13,-123.13,-123.13,-121.73
8.41,-3.79,-0.58,-114.80,-114.80,-114.80
7.96,-4.62,-0.05,-95.62,-95.62,-95.62
7.74,-5.03,0.19,-79.80,-76.86,-76.86
7.53,-5.35,0.34,-54.46,-51.03,-51.03
7.51,-5.31,0.42,-26.95,-23.45,-23.45
7.83,-5.15,0.41,-0.35,5.95,9.03
8.23,-4.64,0.41,24.22,30.03,32.76
8.57,-4.26,0.16,48.72,51.17,51.17
8.78,-3.94,-0.02,72.52,72.52,74.83
9.88,-3.00,-0.01,85.61,89.60,91.28
10.42,-2.28,-0.37,99.26,99.26,103.04
10.02,-1.72,-0.82,109.20,109.20,109.76
10.32,-1.31,-1.09,111.79,111.79,111.79
11.23,-0.38,-1.13,108.64,108.64,108.64
11.81,0.25,-0.87,101.01,101.01,98.35
13.81,2.05,-0.16,87.08,85.12,85.12
15.71,2.62,-0.56,61.18,61.18,58.03
16.97,4.11,0.22,40.67,32.83,28.84
17.79,7.45,2.68,-81.34,-81.34,-81.34
13.21,6.58,3.74,-158.06,-158.06,-163.03
11.62,5.96,4.18,-207.83,-207.83,-207.83
10.22,4.93,4.67,-235.06,-242.76,-242.76
7.63,3.87,5.22,-259.28,-262.29,-262.29
4.98,2.19,6.05,-263.97,-263.97,-262.43
2.93,-0.16,6.05,-252.49,-252.49,-252.49
1.05,-2.09,5.05,-229.67,-229.67,-229.67
-0.59,-3.18,3.57,-190.82,-190.82,-190.82
-1.11,-3.72,3.08,-154.21,-154.21,-154.21
-2.12,-4.30,2.99,-113.47,-113.47,-113.47
-2.70,-4.36,3.36,-82.46,-72.45,-72.45
-2.86,-4.05,4.26,-44.80,-44.80,-36.61
-2.57,-3.93,5.30,-8.68,-8.68,-8.68
-2.75,-3.94,6.17,15.75,15.75,15.75
-3.30,-3.71,7.10,35.91,35.91,35.91
-2.75,-3.61,8.06,49.35,49.35,49.35
-1.97,-4.15,8.73,57.68,57.68,59.08
-1.38,-4.56,8.25,73.15,73.15,73.15
-0.85,-4.13,7.16,79.38,79.38,79.38
-2.11,-3.61,5.99,76.02,76.02,76.02
-2.78,-2.92,5.35,55.58,55.58,55.58
-1.14,-1.91,5.02,32.97,24.08,24.08
0.17,-1.56,4.47,-3.57,-3.57,-12.74
-0.39,-0.79,3.53,-42.00,-45.78,-45.78
3.88,-1.36,4.61,-65.59,-65.59,-67.55
5.53,-1.42,5.07,-77.42,-77.42,-77.84
7.34,-1.72,5.35,-77.63,-77.63,-77.63
6.54,-1.99,6.65,-70.84,-68.32,-68.32
7.34,-2.59,8.75,-58.94,-58.94,-55.86
7.34,-2.32,8.97,-49.91,-49.00,-49.00
5.99,-2.13,9.46,-43.40,-42.49,-42.49
3.86,-2.76,10.83,-32.06,-30.17,-30.17
4.60,-2.78,10.82,-14.21,-11.76,-11.76
4.94,-2.46,9.53,3.01,4.62,4.62
4.44,-1.73,9.11,10.15,12.32,12.32
5.54,-2.27,9.08,20.72,20.72,20.72
6.71,-1.95,6.91,74.62,76.23,76.23
7.23,-1.80,7.48,85.96,87.36,87.36
7.38,-1.15,6.97,96.74,96.74,96.95
7.74,-0.35,6.74,96.60,96.60,96.11
8.15,0.45,7.18,89.04,89.04,89.04
8.45,0.90,7.64,76.86,76.86,76.86
8.62,1.69,7.82,61.81,61.81,61.81
9.21,2.55,7.72,32.34,32.34,23.73
9.58,2.61,7.58,-2.59,-2.59,-2.59
9.96,2.47,7.23,-45.15,-45.15,-45.15
9.67,2.23,6.36,-77.63,-77.63,-77.63
9.73,1.35,5.69,-99.26,-102.62,-102.62
7.41,0.47,4.76,-129.15,-129.15,-129.15
7.78,-0.18,4.36,-146.93,-146.93,-146.93
8.53,-0.67,4.34,-164.78,-164.78,-164.78
8.91,-1.05,3.19,-176.75,-176.75,-176.75
9.40,-1.56,1.48,-190.47,-190.47,-190.47
9.09,-2.42,0.34,-200.06,-200.06,-201.39
8.20,-3.29,0.08,-210.91,-210.91,-210.91
8.06,-3.27,0.07,-217.00,-217.35,-217.35
8.28,-3.98,-0.64,-217.63,-217.49,-217.49
8.66,-4.69,-2.01,-214.20,-213.43,-213.43
8.74,-4.96,-2.75,-203.98,-203.98,-202.58
8.21,-4.75,-2.53,-194.74,-190.96,-188.86
7.85,-5.08,-1.74,-178.15,-178.15,-175.77
8.05,-5.92,-1.19,-155.19,-155.19,-152.88
8.46,-6.21,-1.36,-137.20,-137.20,-134.82
8.17,-5.67,-1.20,-121.66,-121.66,-112.63
8.12,-5.51,-0.83,-96.53,-96.53,-93.31
8.76,-5.34,-0.46,-65.31,-65.31,-62.65
9.39,-5.13,-0.66,-48.72,-43.12,-40.25
8.60,-4.69,-0.24,-23.03,-20.16,-20.16
8.38,-4.00,0.38,2.94,2.94,5.04
8.89,-3.92,0.33,14.98,14.98,16.24
9.12,-3.54,-0.04,22.89,22.89,22.89
9.15,-2.57,0.03,23.45,23.45,23.45
9.32,-1.83,-0.32,18.83,18.83,18.83
9.34,-1.30,-0.67,13.37,12.53,12.53
9.97,-1.23,-1.26,4.41,4.41,4.41
11.83,-1.90,-3.03,-0.49,-0.77,-0.77
11.83,-2.48,-2.65,1.47,1.89,1.89
11.25,-2.63,-1.82,4.62,4.69,4.69
12.26,-3.13,-2.51,1.61,0.77,0.77
14.40,-4.61,-3.40,-3.29,-3.43,-3.43
15.04,-6.45,-2.83,3.50,3.50,3.50
16.73,-9.80,-3.39,37.31,37.31,37.31
15.67,-11.64,-3.02,72.38,79.31,79.31
15.07,-13.68,-2.34,135.31,135.31,144.34
13.60,-13.74,-1.57,228.55,228.55,237.79
11.23,-13.41,-2.19,285.53,285.53,285.53
9.04,-12.00,-2.17,326.97,331.66,331.66
7.41,-10.54,-2.09,367.22,370.72,370.72
6.76,-9.53,-2.03,389.20,389.20,389.20
6.20,-7.59,-1.30,405.79,405.79,405.79
4.69,-5.72,0.65,414.19,414.19,414.19
4.11,-3.47,1.93,409.71,409.71,409.71
4.54,-1.00,3.41,386.54,386.54,386.54
4.15,0.93,5.03,347.34,347.34,347.34
4.21,2.37,5.60,296.38,296.38,296.38
4.13,3.71,5.85,262.01,262.01,262.01
3.31,4.58,6.46,212.66,206.92,206.92
2.01,4.00,7.42,127.82,127.82,124.04
2.94,3.45,7.63,98.77,98.77,95.20
2.94,3.30,7.89,72.24,72.24,68.39
1.77,2.71,8.61,37.17,37.17,37.17
3.26,1.30,9.02,20.02,20.02,20.02
3.54,0.67,9.49,-2.17,-2.17,-2.17
3.43,-0.57,9.98,-13.86,-17.29,-17.29
3.22,-1.32,10.22,-24.64,-24.64,-26.18
3.01,-2.71,11.53,-33.74,-33.74,-33.74
2.53,-4.56,12.28,-32.20,-31.29,-31.29
2.46,-5.01,12.84,-24.92,-24.92,-23.87
3.58,-4.82,12.30,-20.58,-20.58,-20.79
3.49,-3.63,11.78,-26.32,-26.32,-30.17
2.48,-3.52,11.48,-42.21,-42.21,-45.99
1.90,-3.80,10.37,-55.44,-55.44,-55.44
1.45,-2.76,8.73,-70.35,-70.35,-70.35
1.11,-1.46,7.70,-91.84,-91.84,-91.84
0.96,0.01,6.82,-115.99,-115.99,-125.44
1.39,0.62,5.33,-156.03,-156.03,-156.03
1.63,-0.00,4.04,-203.21,-203.21,-203.21
0.14,-0.35,3.64,-233.59,-233.59,-233.59
-0.94,-1.03,3.06,-252.84,-258.72,-258.72
-1.37,-2.63,2.29,-274.12,-274.12,-278.32
0.56,-9.93,-0.13,-274.89,-272.44,-269.92
0.91,-12.11,-0.31,-240.31,-240.31,-240.3
0.85,-13.54,-0.00,-208.04,-195.86,-195.8
1.61,-14.10,0.46,-157.01,-150.29,-150.29
1.01,-13.95,1.46,-103.04,-89.53,-89.53
0.81,-13.53,2.55,-51.38,-39.69,-39.69
0.59,-13.29,3.03,-7.77,-7.77,2.10
-0.17,-12.77,3.81,29.33,29.33,29.33
-0.41,-11.70,4.10,64.54,64.54,64.54
-0.93,-10.74,4.47,79.31,79.31,81.20
-1.17,-9.68,4.76,90.58,91.56,91.56
-1.11,-8.44,5.01,88.69,87.71,87.71
-1.04,-7.53,5.27,75.39,75.39,73.85
-0.60,-7.20,5.24,64.12,64.12,62.44
0.17,-6.56,5.13,33.60,33.60,33.60
0.00,-6.13,5.12,16.17,16.17,16.17
-0.11,-6.07,5.03,4.97,0.91,0.91
0.09,-6.01,4.97,-10.92,-14.49,-14.49
0.19,-6.23,4.73,-24.43,-24.43,-24.43
0.39,-6.88,4.59,-31.43,-31.78,-31.78
0.61,-7.33,4.62,-32.34,-32.27,-31.99
2.47,-9.01,4.35,-27.44,-27.44,-27.44
3.23,-9.03,4.21,-25.83,-25.83,-25.83
3.55,-9.29,4.17,-24.01,-24.01,-24.01
3.42,-9.55,4.34,-20.79,-20.79,-20.79
3.19,-9.72,4.63,-14.84,-14.00,-14.00
3.39,-9.55,4.26,-8.68,-7.98,-7.98
3.82,-9.43,3.96,-5.88,-5.25,-5.11
4.06,-9.37,3.53,-4.06,-4.06,-4.06
4.00,-9.04,3.18,-3.78,-3.78,-3.78
4.12,-8.78,3.08,-4.62,-5.25,-5.25
4.78,-8.63,2.78,-7.28,-7.28,-7.28
5.50,-8.53,2.05,-10.15,-10.15,-10.43
5.74,-8.26,1.70,-10.36,-10.36,-10.36
5.81,-8.31,1.65,-7.49,-7.49,-7.49
5.86,-8.13,1.42,-4.69,-4.69,-4.69
5.39,-8.13,1.40,-3.71,-3.71,-3.71
4.50,-8.13,1.64,-1.68,-1.68,-1.68
4.12,-8.01,1.60,-0.21,-0.21,-0.21
4.31,-7.82,1.28,-2.87,-3.50,-3.50
4.78,-7.76,1.27,-5.11,-5.11,-5.11
5.31,-8.03,1.11,-0.91,-0.91,-0.91
6.23,-8.00,0.95,5.25,5.25,5.25
6.22,-8.01,1.20,12.81,13.51,13.51
6.05,-8.04,1.31,16.31,16.66,16.66
6.40,-7.93,1.79,16.17,16.17,16.17
6.49,-7.64,1.63,14.70,14.49,14.49
6.37,-7.57,1.57,13.09,12.60,12.60
5.84,-7.40,1.85,12.32,12.32,12.32
5.06,-6.69,2.15,7.70,7.70,7.70
5.45,-6.09,2.04,-0.49,-0.49,-0.49
5.85,-6.03,1.84,-13.79,-13.79,-13.79
6.08,-5.90,1.94,-24.36,-24.36,-24.36
6.75,-5.68,1.70,-32.90,-32.90,-32.90
7.22,-5.84,1.23,-42.28,-43.26,-43.26
7.20,-5.89,1.16,-47.18,-48.72,-48.72
7.96,-5.90,0.52,-55.37,-56.21,-56.21
8.32,-6.34,0.17,-59.36,-60.69,-60.69
8.33,-6.74,0.09,-61.95,-62.30,-62.65
8.81,-7.21,-0.43,-63.00,-63.00,-62.86
8.99,-7.81,-0.98,-57.54,-57.54,-57.54
8.17,-8.60,-0.80,-48.09,-48.09,-48.09
7.42,-9.13,-0.44,-33.39,-33.39,-31.36
6.51,-9.17,-0.14,-14.77,-14.77,-14.77
6.01,-9.26,0.18,-5.74,-5.74,-5.74
5.36,-8.25,0.49,-1.26,-1.26,-1.26
5.09,-7.38,0.70,-5.74,-5.74,-5.74
4.75,-7.42,0.94,-10.57,-10.57,-10.57
3.91,-6.72,1.00,-24.85,-24.85,-24.85
-0.05,-7.80,1.02,-28.91,-29.12,-29.12
3.96,-9.00,-0.16,-25.48,-24.92,-24.92
5.45,-6.78,-0.47,-27.65,-28.56,-28.56
5.42,-5.97,-0.05,-36.33,-36.33,-37.52
6.68,-7.13,-0.01,-41.44,-41.30,-41.30
5.90,-9.03,-0.16,-19.60,-19.60,-19.60
5.75,-8.87,-0.30,-6.65,-4.97,-4.97
5.60,-8.81,-0.64,3.50,3.50,3.50
5.88,-8.72,-0.97,10.85,10.85,10.85
5.72,-8.68,-0.72,21.63,21.63,21.63
5.82,-8.59,-0.33,35.00,35.00,35.00
6.61,-8.09,-0.33,44.10,44.10,44.10
6.78,-7.45,-0.51,49.42,51.24,51.24
6.32,-7.36,0.16,74.83,74.83,74.83
6.04,-7.37,0.21,95.20,95.20,95.20
5.95,-7.82,0.13,113.33,113.33,113.33
5.88,-7.61,0.97,128.94,128.94,135.10
7.06,-7.86,0.93,152.18,152.18,152.18
7.93,-8.02,0.98,173.67,173.67,173.67
7.29,-7.50,1.53,184.73,184.73,184.73
6.26,-7.49,2.56,196.91,198.03,198.03
5.62,-7.90,2.89,202.44,203.70,203.70
4.39,-4.14,4.80,145.88,145.88,140.63
4.50,-3.69,5.13,103.95,99.05,99.05
3.94,-3.89,6.12,64.89,64.89,62.23
3.08,-4.72,6.88,52.92,52.01,51.31
2.94,-5.74,7.52,52.08,52.08,52.78
3.39,-5.75,7.78,60.48,60.48,62.16
4.40,-5.36,7.60,69.93,71.47,72.87
5.36,-4.87,7.25,82.32,83.72,83.72
6.02,-4.81,7.10,95.48,95.48,96.81
6.40,-5.61,7.36,105.77,105.77,105.77
6.30,-4.84,8.15,115.57,115.57,117.25
5.97,-4.56,9.03,121.10,121.10,121.10
5.14,-4.33,9.14,123.97,123.97,123.97
4.61,-4.15,9.08,122.64,122.64,121.59
4.40,-3.72,9.32,117.32,117.32,117.32
4.67,-3.40,9.49,106.68,106.68,106.68
5.25,-3.18,9.46,95.41,95.41,91.70
5.82,-2.99,9.25,79.45,79.45,79.45
6.20,-2.96,9.22,59.92,59.92,59.92
6.31,-3.19,9.21,45.64,45.64,41.79
6.50,-3.46,9.24,31.64,31.64,28.42
6.72,-3.63,9.07,18.48,17.22,17.22
6.85,-3.74,8.89,7.14,7.14,7.14
6.72,-3.77,8.68,-3.78,-3.78,-3.78
6.76,-3.80,8.46,-9.73,-9.73,-10.64
6.69,-3.75,8.33,-17.36,-17.36,-17.36
6.76,-3.53,8.10,-25.13,-25.13,-26.04
6.65,-3.59,7.90,-34.37,-34.37,-34.37
6.55,-3.67,7.84,-38.43,-38.92,-38.92
6.54,-3.74,7.85,-42.70,-42.70,-42.84
6.43,-3.72,7.82,-44.03,-44.03,-44.17
6.40,-3.69,7.73,-45.36,-45.50,-45.50
6.51,-3.47,7.59,-47.81,-47.81,-48.09
6.76,-3.17,7.41,-51.66,-51.66,-52.43
6.88,-2.93,7.17,-56.56,-56.56,-57.47
6.98,-2.78,6.83,-65.38,-65.38,-65.38
6.89,-2.74,6.68,-71.82,-72.66,-72.66
6.73,-2.81,6.40,-79.87,-79.87,-80.64
6.59,-2.88,6.21,-84.07,-85.40,-85.96
6.49,-3.08,5.86,-89.81,-89.81,-89.81
6.38,-3.24,5.65,-92.89,-92.89,-92.89
6.57,-3.42,5.35,-96.11,-96.25,-96.25
6.81,-3.68,5.03,-97.79,-97.79,-97.79
7.03,-4.04,4.50,-98.98,-98.98,-98.98
7.05,-4.38,3.92,-99.96,-99.96,-99.96
7.50,-4.72,3.77,-100.38,-100.66,-100.66
8.04,-5.13,3.49,-100.87,-100.87,-100.94
8.06,-5.87,3.10,-100.45,-100.45,-100.38
7.97,-7.35,2.67,-99.19,-99.05,-99.05
7.97,-6.16,1.74,-99.12,-99.26,-99.26
7.96,-6.25,0.88,-100.03,-100.03,-100.10
8.09,-6.50,0.41,-100.24,-100.10,-100.10
8.37,-6.54,-0.27,-100.10,-100.10,-100.10
8.51,-6.30,-1.25,-100.59,-100.73,-100.73
8.36,-6.45,-1.65,-100.24,-100.24,-99.96
7.98,-6.47,-1.96,-99.12,-98.77,-98.56
7.32,-5.92,-2.28,-98.21,-98.21,-98.21
7.11,-5.05,-2.70,-103.04,-103.95,-103.95
7.16,-4.64,-2.86,-108.15,-110.67,-110.67
7.45,-4.50,-2.90,-115.64,-115.64,-116.41
8.12,-4.09,-2.98,-127.19,-127.19,-127.19
6.84,-4.79,-4.18,-144.41,-144.41,-144.41
6.26,-4.59,-4.46,-147.84,-147.84,-147.84
6.86,-4.06,-5.02,-153.37,-153.37,-153.37
7.04,-3.88,-5.36,-157.57,-157.57,-157.71
7.07,-3.71,-5.36,-158.06,-158.06,-158.06
7.22,-3.43,-5.72,-158.13,-158.13,-158.13
7.79,-3.13,-5.94,-159.39,-159.39,-159.39
8.17,-2.19,-5.94,-162.33,-162.33,-162.33
8.05,-1.56,-5.90,-164.85,-164.85,-164.85
7.83,-1.72,-5.41,-160.79,-160.79,-160.79
8.19,-1.45,-5.25,-155.05,-153.86,-153.86
8.34,-0.64,-5.16,-143.01,-141.68,-141.68
8.64,-0.22,-4.92,-132.30,-130.76,-130.76
8.77,0.57,-5.12,-122.57,-121.45,-119.21
8.04,3.35,-5.98,-103.04,-98.91,-93.10
9.13,4.21,-5.33,-79.10,-76.44,-76.44
9.74,2.77,-4.74,-56.07,-56.07,-53.97
10.37,1.88,-4.72,-44.17,-41.09,-39.90
10.31,2.43,-4.63,-34.86,-34.23,-34.23
9.23,2.80,-4.84,-35.70,-35.70,-53.62
8.07,3.01,-5.03,-41.65,-44.24,-44.24
7.59,2.65,-4.74,-53.34,-57.05,-57.05
7.17,2.62,-4.34,-69.79,-69.79,-75.18
7.57,4.12,-4.85,-96.46,-96.46,-96.46
7.60,5.01,-5.58,-144.27,-144.27,-144.27
7.47,4.90,-5.53,-178.64,-178.64,-178.64
6.04,7.01,-5.58,-201.60,-208.39,-208.39
6.06,9.93,-5.97,-227.50,-230.37,-230.37
5.93,7.96,-5.99,-237.37,-237.37,-237.37
8.05,3.86,-5.27,-219.45,-219.45,-216.16
8.51,3.67,-5.08,-176.12,-176.12,-176.12
7.89,3.22,-4.38,-115.01,-115.01,-115.01
6.54,2.72,-3.60,-91.28,-90.30,-90.30
4.81,4.40,-3.30,-71.05,-71.05,-67.83
5.59,4.81,-3.33,-38.78,-38.78,-38.78
5.99,6.24,-3.18,-26.60,-24.15,-24.15
5.95,7.22,-3.38,-13.09,-13.09,-12.11
6.94,7.04,-3.60,-2.52,-2.52,-2.52
-42.97,29.45,-3.56,-39.62,-29.40,-29.40
9.35,4.90,-2.56,-17.22,-12.53,-12.53
6.83,5.84,-3.37,-7.49,-6.37,-6.37
0.38,10.04,-2.80,-24.64,-24.64,-21.56
5.32,6.59,-3.22,-10.15,-10.15,-10.43
5.19,8.39,-2.97,-22.61,-24.15,-24.15
5.05,6.91,-3.01,-25.41,-25.41,-26.39
5.00,7.42,-2.76,-33.60,-33.60,-33.60
4.55,7.82,-2.57,-36.61,-36.61,-36.61
5.03,7.33,-2.25,-36.26,-36.12,-36.12
4.83,7.24,-2.01,-33.46,-33.46,-32.06
4.95,7.21,-1.91,-27.37,-27.37,-27.37
5.12,7.32,-1.90,-18.76,-18.76,-18.76
5.09,7.37,-1.93,-13.02,-13.02,-13.02
5.07,7.35,-2.00,-8.61,-6.93,-6.93
5.07,7.57,-2.05,-2.59,-2.59,-1.40
5.16,7.49,-2.03,3.57,4.20,4.20
5.49,7.51,-1.95,8.54,8.54,9.10
5.35,9.30,-2.34,7.28,5.67,5.67
5.25,8.40,-2.23,4.97,4.97,5.39
5.10,8.41,-2.26,7.00,7.28,7.28
5.14,8.12,-2.03,8.68,9.31,9.31
5.31,7.85,-1.95,15.40,15.40,16.38
5.41,7.64,-1.89,22.40,22.40,23.45
5.72,7.57,-1.85,31.01,31.01,31.01
5.81,7.39,-1.82,38.01,38.85,38.85
5.84,6.56,-1.78,52.08,53.34,53.34
6.06,6.70,-1.77,61.88,62.44,62.44
6.39,7.06,-1.86,65.59,65.59,65.59
7.33,7.53,-1.93,58.17,57.19,57.19
5.83,7.82,-2.36,15.61,15.61,15.61
5.30,7.54,-2.19,-1.61,-2.80,-2.80
5.17,7.56,-2.13,-5.53,-5.53,-5.53
5.15,7.10,-1.97,-6.23,-6.02,-6.02
5.13,6.86,-1.96,-3.64,-3.64,-3.22
5.04,6.84,-2.11,-1.33,-0.56,-0.42
5.02,6.85,-2.00,0.63,0.77,0.77
4.85,6.60,-1.93,3.15,3.15,3.57
4.46,6.66,-1.91,5.25,5.25,5.25
4.63,6.82,-2.01,7.63,7.63,7.63
4.85,7.12,-2.10,8.47,8.47,8.47
5.09,7.17,-2.24,8.54,8.54,8.54
5.20,7.16,-2.25,7.98,7.98,7.98
5.47,7.15,-2.43,6.37,6.37,6.37
5.93,7.15,-2.62,4.69,4.69,4.69
6.37,7.01,-2.75,0.84,0.42,0.42
6.61,7.00,-2.84,-2.10,-2.38,-2.38
6.34,6.79,-2.97,-3.99,-3.99,-3.92
6.48,6.70,-2.93,-3.71,-3.78,-3.64
6.38,6.83,-2.81,-3.15,-3.01,-3.08
6.67,6.90,-2.93,-1.75,-1.75,-1.75
6.74,7.01,-3.02,0.77,1.12,1.12
6.51,7.28,-3.08,2.80,2.80,3.01
6.28,7.29,-3.18,3.08,3.08,3.08
5.96,7.22,-3.31,2.24,2.24,2.24
6.57,7.04,-3.49,3.22,3.22,3.22
6.29,6.98,-3.53,3.15,3.15,3.15
5.99,7.72,-3.42,-4.48,-4.48,-6.30
5.78,8.24,-3.40,-12.11,-12.11,-12.11
6.53,7.87,-2.99,-19.53,-19.53,-19.53
6.59,8.50,-3.46,-24.29,-26.18,-26.18
6.76,7.97,-3.37,-30.66,-30.80,-30.80
6.94,7.67,-3.14,-30.03,-30.03,-29.68
6.67,7.20,-3.05,-25.76,-25.76,-22.89
6.54,6.43,-3.34,-11.06,-11.06,-11.06
6.37,6.68,-3.93,7.35,7.35,7.35
5.65,6.41,-3.63,35.56,18.90,18.90
4.96,5.85,-3.26,24.78,28.00,28.00
4.58,5.50,-2.87,33.32,34.37,36.40
3.61,4.50,-2.57,42.35,43.19,43.19
3.03,3.46,-2.29,51.45,51.45,52.57
3.55,3.25,-2.05,57.82,57.82,59.08
3.31,3.29,-1.70,68.18,68.18,68.18
2.67,3.21,-1.57,73.15,74.55,74.55
3.30,3.05,-1.62,77.42,77.77,77.77
3.82,3.06,-1.81,79.38,79.38,79.59
4.05,3.19,-1.68,81.34,81.34,81.48
4.37,3.14,-1.54,81.62,81.62,81.62
6.67,2.94,-2.59,80.36,80.36,80.43
7.64,2.63,-2.84,81.55,82.11,82.32
8.64,2.06,-3.32,83.37,83.37,83.44
9.32,1.87,-3.74,82.53,82.53,81.13
9.62,2.03,-4.65,77.70,77.70,77.07
10.90,2.45,-5.54,72.45,72.45,72.66
11.80,2.12,-5.75,74.62,74.62,74.76
12.06,3.20,-5.70,72.52,69.86,68.11
11.84,6.19,-5.71,56.00,49.91,49.91
11.81,6.75,-5.47,30.24,30.24,20.51
11.72,5.84,-4.95,-3.15,-3.15,-3.15
11.14,6.01,-4.72,-43.33,-43.33,-43.33
10.11,5.92,-5.55,-66.15,-71.68,-71.68
10.52,4.90,-6.17,-81.41,-82.74,-82.74
10.95,3.45,-5.44,-82.53,-82.18,-82.18
10.51,3.43,-5.27,-77.98,-77.98,-77.49
9.70,3.99,-5.26,-74.20,-73.22,-73.22
9.76,3.49,-4.83,-66.15,-66.15,-62.16
9.39,3.01,-4.30,-55.44,-55.44,-55.44
8.82,3.30,-3.57,-44.52,-44.52,-44.52
8.87,3.50,-3.25,-40.67,-40.67,-39.90
8.28,3.88,-3.08,-39.13,-39.13,-39.13
7.83,3.58,-2.91,-42.84,-42.84,-42.84
8.32,3.33,-2.95,-43.82,-43.96,-43.96
10.03,2.88,-3.39,-37.31,-37.31,-37.31
10.27,2.94,-3.75,-31.64,-31.08,-31.08
10.24,3.38,-4.05,-27.51,-26.88,-26.88
10.09,4.16,-4.24,-24.85,-24.50,-24.50
9.65,5.02,-4.48,-24.43,-24.43,-24.50
9.45,5.76,-4.78,-25.62,-25.62,-25.90
9.66,5.91,-4.73,-26.74,-26.74,-27.30
9.70,5.58,-4.64,-28.21,-28.21,-28.42
9.32,5.47,-4.70,-29.33,-29.33,-29.33
9.15,5.70,-4.47,-28.70,-28.70,-28.49
8.91,5.81,-4.05,-28.42,-29.26,-29.26
7.63,7.22,-3.47,-37.24,-40.25,-40.25
6.73,6.89,-3.91,-48.09,-48.09,-49.00
6.03,7.17,-3.26,-56.00,-57.05,-57.05
4.95,6.72,-2.51,-62.58,-62.58,-62.72
3.05,8.32,-2.75,-61.95,-61.95,-61.95
1.92,9.28,-3.44,-53.55,-53.55,-52.78
2.52,9.93,-2.63,-52.50,-52.50,-52.85
3.97,10.07,-2.40,-60.13,-60.13,-60.13
3.68,9.32,-2.61,-73.64,-73.64,-73.64
3.11,8.56,-2.50,-82.18,-82.18,-82.18
3.36,7.83,-2.16,-88.27,-88.27,-88.27
3.25,8.26,-2.31,-94.78,-95.48,-95.48
2.78,8.82,-2.42,-99.75,-102.34,-102.34
2.05,9.55,-2.60,-109.20,-109.20,-110.18
1.36,9.94,-2.41,-118.58,-118.58,-118.58
0.91,10.37,-2.46,-124.88,-124.88,-124.88
0.92,10.86,-2.46,-131.25,-131.25,-132.65
0.16,10.90,-1.93,-134.19,-133.98,-133.98
-0.67,10.79,-1.32,-127.75,-127.75,-126.7
-1.44,10.88,-1.05,-119.42,-119.42,-118.0
-1.68,10.90,-0.63,-106.75,-106.75,-105.2
-1.78,11.01,-0.17,-92.89,-89.60,-89.60
-1.88,11.27,0.08,-80.08,-80.08,-76.93
-2.46,11.07,0.01,-67.06,-67.06,-67.06
-3.05,10.66,0.38,-47.25,-47.25,-47.25
-4.35,10.11,0.41,-32.76,-30.45,-30.45
-5.63,9.29,0.18,-11.41,-8.40,-8.40
-6.60,8.36,0.15,17.78,17.78,20.51
-7.22,7.79,0.15,33.39,38.01,40.04
-7.32,7.21,0.02,48.86,48.86,52.71
-6.66,6.90,0.09,57.12,57.12,57.12
-6.31,6.73,0.22,54.74,54.74,54.74
-5.97,6.77,0.45,41.51,41.51,41.51
-5.94,6.34,0.63,27.30,27.30,27.30
-6.53,5.35,0.89,18.06,18.06,18.06
-6.92,4.51,1.24,12.11,11.83,11.83
-7.16,3.76,1.31,10.92,10.85,10.92
-7.15,3.26,1.34,11.27,11.34,11.34
-7.03,2.70,1.19,12.25,12.18,12.18
-6.98,2.35,0.97,13.02,13.37,13.37
-7.24,2.15,1.11,15.89,15.89,15.89
-7.32,2.15,0.83,20.58,20.58,20.58
-7.35,2.36,0.46,22.40,22.40,22.40
-7.64,2.41,0.11,23.17,23.17,23.17
-8.26,2.50,-0.02,23.73,23.73,23.73
-8.73,2.61,-0.14,24.92,24.92,24.92
-8.80,2.84,-0.30,24.78,24.78,24.78
-8.66,3.01,-0.45,22.75,22.40,22.40
-8.93,3.06,-0.49,19.11,18.76,18.76
-9.40,3.09,-0.29,16.73,16.73,16.73
-9.48,3.20,-0.21,14.35,14.35,14.07
-9.38,3.22,-0.27,11.55,11.55,11.27
-9.40,3.20,-0.28,8.89,8.89,8.61
-9.33,3.16,-0.31,5.74,5.74,5.74
-9.30,3.12,-0.21,3.50,3.43,3.43
-9.21,3.20,-0.21,2.31,2.10,2.10
-9.28,3.23,-0.22,0.98,0.77,0.77
-9.35,3.11,-0.22,0.21,0.21,0.21
-9.36,3.06,-0.25,0.42,0.42,0.49
-9.27,3.03,-0.23,1.40,1.40,1.40
-9.25,3.14,-0.11,2.38,2.38,2.38
-9.21,3.29,-0.12,3.01,3.01,3.01
-9.27,3.29,-0.19,3.36,3.36,3.36
-9.27,3.34,-0.19,3.57,3.57,3.57
-9.22,3.38,-0.18,3.36,3.36,3.50
-9.17,3.52,-0.13,2.87,2.87,2.87
-9.21,3.64,-0.11,1.54,1.54,1.54
-9.27,3.62,-0.14,0.63,0.63,0.63
-9.32,3.52,-0.20,0.21,0.21,0.21
-9.32,3.39,-0.20,0.49,0.49,0.49
-9.26,3.39,-0.20,1.47,1.47,1.47
-9.16,3.42,-0.27,2.03,2.03,2.17
-9.12,3.41,-0.32,2.24,2.24,2.24
-9.10,3.35,-0.35,2.24,2.24,2.24
-9.11,3.27,-0.40,2.94,2.94,2.94
-9.19,3.30,-0.33,4.20,4.34,4.34
-9.15,3.35,-0.35,4.83,4.97,4.97
-9.24,3.45,-0.36,5.11,5.11,4.97
-9.24,3.49,-0.31,4.83,4.90,4.76
-9.17,3.54,-0.32,4.06,3.99,3.99
-9.16,3.42,-0.30,3.22,3.08,3.08
-9.30,3.22,-0.29,3.64,3.64,3.64
-9.36,3.04,-0.31,4.97,4.97,4.97
-9.18,3.07,-0.50,12.74,12.74,12.74
-9.11,3.24,-0.56,12.39,12.39,12.46
-9.10,3.24,-0.56,10.36,10.08,10.08
-9.06,3.33,-0.45,8.68,8.68,8.68
-8.99,3.41,-0.41,7.77,7.56,7.56
-8.80,3.36,-0.37,7.28,7.21,7.21
-8.18,3.01,-0.16,17.57,17.57,18.34
-7.66,2.79,-0.30,27.86,27.86,29.19
-7.03,2.68,-0.44,37.24,37.24,37.24
-6.63,2.88,-0.92,47.18,47.18,48.16
-5.96,3.05,-1.57,55.16,56.07,56.07
-5.28,3.22,-2.52,64.61,64.61,65.73
-4.84,3.54,-3.22,73.50,73.50,73.50
-4.13,3.81,-4.68,85.12,86.45,86.45
-3.12,4.43,-5.92,94.99,96.25,96.25
-2.26,5.17,-7.59,105.98,108.57,109.83
-1.19,6.04,-9.21,115.36,115.36,118.16
-0.14,6.59,-11.17,123.83,123.83,123.83
0.51,6.62,-12.34,131.39,131.39,131.39
1.16,6.65,-13.63,143.85,143.85,143.85
1.25,6.95,-14.12,148.61,148.61,149.10
1.51,6.86,-14.00,145.74,145.74,145.74
1.94,6.43,-13.60,137.48,137.48,137.48
2.15,5.57,-12.46,124.39,124.39,124.39
2.15,4.73,-10.85,106.05,106.05,106.05
2.13,3.91,-9.69,94.57,90.93,90.93
2.24,2.90,-8.24,81.69,81.69,79.38
2.79,1.99,-6.53,73.50,72.66,72.66
3.68,1.95,-5.69,64.54,64.54,63.42
5.08,2.34,-5.41,55.23,55.23,55.23
6.40,2.85,-5.44,40.11,40.11,37.94
7.40,3.19,-5.47,16.59,16.59,16.59
8.11,3.20,-5.63,-16.03,-0.49,-0.49
8.48,3.12,-5.83,-20.23,-20.23,-22.12
8.58,2.89,-5.89,-31.22,-34.30,-35.84
8.55,2.50,-5.92,-41.93,-43.68,-44.45
8.31,2.21,-5.90,-47.11,-47.11,-47.25
8.12,2.08,-5.86,-46.20,-46.20,-46.20
7.90,2.13,-5.77,-43.12,-43.12,-43.12
7.74,2.21,-5.77,-40.74,-40.18,-40.18
7.62,2.40,-5.69,-38.50,-38.50,-38.22
7.43,2.72,-5.59,-38.22,-38.22,-38.22
7.32,3.21,-5.66,-42.00,-42.00,-42.00
6.95,4.09,-5.75,-58.10,-58.10,-59.43
7.03,4.59,-5.92,-66.64,-69.72,-71.33
7.06,5.01,-6.11,-79.59,-79.59,-84.84
7.00,5.27,-6.36,-97.09,-97.09,-98.84
6.83,5.33,-6.43,-109.41,-109.41,-110.74
6.21,5.60,-6.32,-127.75,-127.75,-130.34
6.31,5.58,-6.31,-137.06,-137.06,-137.06
6.03,5.37,-6.03,-145.18,-145.18,-145.18
6.37,5.58,-5.76,-148.61,-148.61,-148.61
6.69,5.68,-5.47,-148.96,-148.96,-148.96
6.78,5.33,-5.32,-144.76,-142.38,-142.38
6.49,5.17,-4.28,-94.64,-94.64,-94.64
6.68,5.37,-4.04,-84.14,-78.12,-78.12
6.51,5.72,-3.98,-65.10,-65.10,-65.10
6.34,5.96,-4.01,-49.21,-49.21,-49.21
6.19,6.14,-3.98,-39.90,-39.90,-39.90
6.69,6.33,-3.86,-35.35,-35.35,-35.35
7.13,6.36,-3.54,-34.86,-35.07,-35.07
7.26,6.01,-3.46,-35.91,-36.54,-36.54
7.36,5.45,-3.16,-37.24,-37.24,-37.45
7.31,4.88,-2.95,-37.87,-37.87,-37.66
7.11,4.54,-2.77,-35.84,-35.84,-35.84
7.17,4.27,-2.90,-32.27,-30.45,-30.45
7.42,4.11,-3.02,-21.98,-21.98,-20.30
7.43,4.01,-3.04,-5.88,-5.88,-4.27
7.49,3.82,-3.11,4.06,4.06,5.74
7.02,3.79,-3.01,18.41,18.41,18.41
6.49,4.18,-2.83,26.04,26.74,26.74
6.43,4.02,-3.62,32.41,33.67,33.67
6.70,3.68,-4.03,36.05,36.68,37.45
6.80,3.52,-4.52,39.83,40.11,40.11
6.84,3.33,-4.92,42.84,43.19,43.19
6.89,2.97,-5.38,44.45,44.45,44.45
7.11,2.59,-5.76,42.84,42.84,42.49
7.22,2.34,-6.26,40.04,39.34,38.92
7.00,1.78,-6.64,35.91,34.79,34.44
6.82,1.57,-7.43,33.53,33.60,33.67
6.81,1.06,-7.95,34.79,35.35,35.63
6.99,0.57,-8.25,38.08,38.08,38.08
7.59,0.22,-8.56,44.03,45.08,45.08
8.21,0.13,-8.66,56.77,56.77,57.89
8.36,0.32,-8.96,63.35,65.17,66.08
7.54,0.61,-9.16,69.79,70.77,71.26
6.38,0.89,-9.35,73.01,73.01,73.36
5.51,0.90,-9.46,76.37,76.37,76.72
3.24,1.97,-8.76,77.70,77.70,77.49
3.58,1.90,-8.80,73.36,73.36,72.52
3.13,1.76,-8.93,66.64,64.19,62.72
3.03,1.56,-8.91,55.37,55.37,50.54
3.05,0.92,-8.95,38.99,38.99,37.38
3.15,0.27,-9.05,30.59,30.59,30.59
3.95,-0.62,-10.04,30.17,30.87,30.87
3.85,-0.48,-9.49,35.35,35.98,35.98
3.73,-0.42,-9.59,40.60,40.60,40.60
3.70,-0.31,-9.48,47.04,47.04,47.04
3.55,-0.15,-9.38,46.62,46.62,45.85
3.30,0.02,-9.30,41.09,41.09,40.25
2.90,0.11,-9.17,31.71,31.71,31.71
2.60,0.10,-9.19,27.02,27.02,25.48
2.35,-0.25,-9.15,21.42,21.42,21.42
2.28,-0.55,-9.39,18.90,18.90,18.76
2.23,-0.70,-9.40,18.13,18.13,18.13
2.08,-0.86,-9.53,18.55,19.18,19.18
1.96,-0.93,-9.60,20.37,20.44,20.79
1.79,-1.03,-9.60,22.12,22.26,22.26
1.82,-1.12,-9.60,22.82,23.24,23.24
1.91,-0.96,-9.60,22.96,22.96,22.96
2.00,-0.71,-9.63,20.44,18.76,18.76
1.99,-0.67,-9.63,15.26,14.63,12.95
1.82,-0.69,-9.63,8.89,8.12,6.37
1.64,-0.85,-9.54,1.40,1.40,0.56
1.60,-1.00,-9.55,-4.55,-4.55,-4.55
1.44,-1.17,-9.57,-7.35,-7.35,-7.35
1.34,-1.19,-9.56,-9.73,-9.73,-9.73
1.18,-1.22,-9.57,-10.57,-10.78,-10.78
1.00,-1.34,-9.57,-10.78,-10.64,-10.64
1.08,-1.48,-9.61,-9.24,-9.24,-9.24
0.99,-1.58,-9.53,-6.58,-6.30,-6.30
0.87,-1.61,-9.62,-4.13,-3.85,-3.85
0.70,-1.56,-9.55,-2.45,-1.68,-1.68
0.52,-1.45,-9.44,-0.84,-0.84,-0.84
0.55,-1.30,-9.62,-1.68,-2.80,-2.80
0.89,-1.18,-9.73,-5.46,-6.02,-7.07
1.19,-1.12,-9.82,-10.01,-10.01,-10.36
1.26,-1.08,-10.01,-12.11,-12.11,-12.11
1.15,-1.00,-10.00,-15.05,-15.05,-15.05
0.89,-0.98,-10.03,-16.03,-16.03,-16.03
0.84,-1.00,-10.00,-16.38,-16.17,-16.17
0.75,-1.03,-9.93,-16.03,-16.03,-16.03
0.68,-1.05,-9.81,-15.19,-15.19,-15.19
0.51,-1.07,-9.65,-13.58,-13.30,-13.30
0.40,-1.11,-9.60,-11.06,-10.64,-10.64
0.55,-1.29,-9.64,-7.07,-6.30,-6.30
0.72,-1.44,-9.58,-1.12,-0.21,-0.21
0.70,-1.43,-9.60,7.00,7.98,7.98
0.56,-1.26,-9.56,14.14,14.14,14.14
0.51,-1.12,-9.54,18.20,18.48,18.48
0.51,-1.10,-9.53,20.44,20.65,20.65
0.55,-1.12,-9.60,22.54,22.89,22.89
0.50,-1.07,-9.64,24.22,24.29,24.29
0.40,-1.02,-9.62,24.64,24.64,24.43
0.37,-0.98,-9.65,23.38,23.38,23.10
0.43,-0.93,-9.71,19.88,19.88,19.88
0.45,-0.93,-9.77,16.87,16.45,16.45
0.43,-0.93,-9.82,12.32,11.20,10.64
0.40,-0.90,-9.79,7.28,7.28,5.39
0.50,-1.06,-9.90,-1.40,-1.75,-1.75
0.47,-1.13,-9.88,-5.32,-5.32,-5.53
0.45,-1.18,-9.88,-7.42,-7.42,-7.42
0.45,-1.18,-9.82,-9.17,-9.17,-9.31
0.52,-1.24,-9.75,-10.57,-10.57,-10.57
0.54,-1.29,-9.75,-10.43,-10.43,-10.43
0.58,-1.38,-9.70,-8.47,-8.47,-8.47
0.61,-1.44,-9.74,-6.02,-6.02,-6.02
0.67,-1.42,-9.72,-2.52,-2.10,-2.10
0.75,-1.45,-9.73,-0.07,0.35,1.19
0.70,-1.49,-9.71,9.66,9.66,9.66
0.64,-1.46,-9.65,11.62,11.62,12.11
0.67,-1.41,-9.60,13.02,13.02,13.02
0.71,-1.38,-9.60,12.88,12.88,12.88
0.74,-1.39,-9.55,12.39,11.97,11.97
0.74,-1.41,-9.60,10.92,10.64,10.36
0.75,-1.46,-9.59,9.17,9.17,8.96
0.78,-1.47,-9.60,7.49,7.49,7.49
0.81,-1.49,-9.61,5.67,5.67,5.67
0.91,-1.51,-9.67,3.64,3.64,3.64
0.98,-1.53,-9.71,2.38,1.89,1.89
0.95,-1.51,-9.71,0.70,0.70,0.70
0.92,-1.51,-9.71,-0.56,-0.77,-0.77
0.90,-1.54,-9.71,-1.26,-1.54,-1.54
0.94,-1.55,-9.71,-2.10,-2.03,-2.45
0.94,-1.54,-9.72,-2.66,-2.66,-2.87
0.87,-1.51,-9.70,-3.29,-3.36,-3.64
0.90,-1.52,-9.67,-4.62,-4.69,-4.69
1.01,-1.56,-9.73,-4.41,-4.34,-4.34
1.27,-1.55,-9.90,-3.36,-3.36,-3.15
1.64,-1.45,-10.07,-2.24,-2.24,-2.03
2.69,-1.85,-11.77,4.20,4.20,4.20
1.48,-1.93,-11.84,10.92,10.92,10.92
0.58,-2.34,-12.39,19.11,19.11,20.79
-0.49,-2.46,-12.40,31.22,31.22,32.48
-1.29,-2.46,-12.07,43.47,43.47,43.47
-1.80,-2.58,-11.77,50.40,50.40,50.40
-1.86,-2.52,-11.37,55.30,55.30,55.30
-1.46,-2.21,-10.83,56.56,56.56,56.56
-0.76,-2.05,-10.41,51.94,51.94,51.94
-0.09,-1.90,-10.05,46.62,44.52,44.52
0.33,-1.85,-9.52,37.87,35.49,35.49
0.45,-1.88,-8.76,27.65,27.65,27.65
0.67,-1.95,-8.15,21.14,20.30,20.30
0.89,-1.98,-7.56,14.28,13.93,13.93
1.09,-1.96,-7.22,10.85,10.85,10.85
1.23,-1.92,-6.79,7.42,7.42,7.21
1.25,-1.80,-6.18,3.64,3.64,3.15
1.29,-1.67,-5.90,0.28,0.28,-0.35
1.43,-1.66,-5.99,-5.18,-5.18,-5.18
1.65,-1.69,-6.26,-8.82,-8.82,-8.82
1.90,-1.75,-6.65,-10.22,-10.43,-10.43
1.83,-1.75,-7.06,-11.83,-11.83,-11.90
1.79,-1.79,-7.36,-12.39,-12.53,-12.53
1.62,-1.83,-7.62,-13.16,-13.58,-13.58
1.23,-1.76,-7.89,-15.19,-15.19,-15.47
0.96,-1.88,-8.38,-15.12,-15.12,-15.12
0.26,-1.84,-8.36,-12.11,-12.11,-12.11
-0.15,-1.95,-8.99,-8.33,-8.33,-8.33
-0.28,-2.08,-8.96,-6.44,-6.44,-6.44
-0.40,-2.14,-8.89,-3.15,-3.15,-3.15
-0.43,-2.29,-9.62,1.19,1.96,1.96
-0.21,-2.60,-10.03,6.93,7.98,7.98
-0.36,-2.69,-10.07,16.10,17.01,17.01
-0.46,-2.92,-10.42,25.76,25.76,26.81
-0.44,-2.82,-10.07,30.03,30.80,31.22
-1.04,-2.55,-9.93,32.48,32.48,32.41
-1.42,-2.59,-9.96,33.25,33.25,33.25
-1.76,-2.58,-10.04,34.79,34.79,34.79
-1.52,-2.80,-10.28,32.41,32.41,32.41
-1.96,-2.76,-9.74,30.03,30.03,30.03
-2.12,-2.72,-10.37,8.26,8.26,8.26
-1.05,-3.34,-11.37,-1.82,-1.82,-1.82
-0.50,-3.04,-10.72,-4.06,-5.39,-5.39
-0.11,-2.91,-10.60,-10.01,-10.57,-10.57
-0.36,-3.38,-10.44,-9.24,-9.24,-8.33
-0.69,-3.56,-9.96,-3.99,-2.66,-2.66
-0.80,-3.49,-9.54,0.00,0.35,0.49
-0.45,-3.68,-9.63,1.61,1.61,2.80
0.20,-3.60,-9.67,4.62,4.62,4.62
0.47,-3.13,-9.30,1.61,1.61,0.56
0.50,-3.07,-9.44,-9.31,-9.31,-10.08
0.65,-3.25,-9.94,-14.70,-14.70,-14.70
0.54,-3.24,-9.93,-21.21,-23.03,-23.03
-0.20,-4.14,-10.56,-24.08,-24.08,-0.49
-1.98,-5.33,-9.62,5.74,5.74,5.74
-3.46,-5.64,-9.11,19.46,21.00,21.00
-4.03,-6.20,-8.96,29.47,36.05,36.05
-3.47,-6.54,-9.38,52.71,52.71,52.71
-2.62,-6.29,-9.93,67.41,67.41,67.41
-1.63,-5.31,-9.86,74.69,74.69,74.69
-0.89,-4.63,-9.38,70.42,69.16,69.16
-0.43,-4.55,-9.44,57.68,57.68,57.68
-0.54,-4.98,-9.52,51.38,51.38,51.38
-0.56,-4.32,-8.75,45.08,45.08,45.08
-0.60,-3.99,-8.42,34.23,31.64,31.64
-0.73,-4.18,-8.77,27.02,27.02,25.69
-0.89,-3.92,-8.75,17.92,17.92,17.92
-1.34,-3.67,-8.48,11.13,8.26,8.26
-1.53,-3.45,-7.74,-1.96,-1.96,-5.74
-1.72,-3.48,-7.80,-20.79,-20.79,-20.79
-2.04,-3.69,-8.13,-33.88,-33.88,-33.88
-3.32,-3.99,-8.69,-41.51,-43.54,-43.54
-4.77,-4.59,-9.22,-49.35,-50.61,-50.61
-4.33,-6.16,-9.43,-48.65,-48.65,-44.94
-2.65,-8.76,-9.95,-18.34,-13.58,-13.58
-2.04,-9.29,-9.57,29.68,29.68,34.30
-2.36,-9.17,-9.16,56.56,65.10,69.58
-3.27,-9.23,-9.09,95.13,98.98,98.98
-3.23,-9.61,-8.70,126.00,126.00,129.99
-2.97,-9.50,-8.59,160.37,160.37,163.17
-2.93,-9.01,-7.80,177.24,177.24,178.50
-3.89,-7.60,-7.27,180.46,180.46,180.46
-4.28,-6.82,-7.06,169.68,167.86,167.86
-4.27,-6.78,-6.86,158.83,153.93,153.93
-3.99,-7.05,-6.25,147.84,147.00,145.32
-3.80,-7.20,-5.77,142.45,142.45,142.10
-3.78,-7.28,-5.31,139.51,139.51,139.23
-3.88,-7.44,-5.47,137.06,137.06,136.85
-3.74,-7.59,-4.70,133.84,133.84,133.35
-3.42,-7.39,-4.36,129.78,127.54,126.21
-3.05,-7.08,-3.59,115.85,115.85,115.85
-2.85,-7.09,-3.10,100.45,98.77,98.77
-2.85,-7.08,-2.80,89.25,87.64,87.64
-3.07,-7.32,-2.30,73.57,73.57,72.17
-3.42,-7.45,-1.79,63.63,63.63,62.44
-3.62,-7.43,-1.29,54.95,54.95,53.55
-3.60,-7.32,-1.00,41.65,41.65,41.65
-3.62,-7.19,-1.09,34.02,31.36,31.36
-4.03,-7.33,-1.11,24.15,22.12,22.12
-4.67,-7.72,-1.11,17.57,16.87,16.87
-5.38,-8.08,-0.65,17.08,17.08,17.43
-5.83,-8.17,-0.49,21.91,21.91,21.91
-6.10,-7.98,-0.46,25.48,26.81,26.81
-6.43,-7.63,-0.66,30.10,30.52,30.52
-6.84,-7.47,-0.58,33.18,33.18,33.39
-7.26,-7.13,-0.35,35.49,35.49,53.41
-7.63,-6.66,-0.17,37.10,37.45,37.45
-8.26,-6.12,0.36,37.45,37.45,37.45
-8.54,-5.65,0.62,34.58,34.02,34.02
-8.45,-5.07,0.61,29.82,27.86,27.86
-7.93,-4.48,0.37,20.93,19.95,19.95
-7.93,-4.35,0.22,11.62,11.62,10.78
-8.60,-4.52,0.26,7.07,5.53,4.83
-8.99,-4.46,0.45,1.54,1.54,-0.49
-8.88,-4.59,0.41,-3.57,-3.57,-5.39
-8.39,-4.68,0.31,-8.96,-8.96,-8.96
-8.18,-4.78,0.14,-13.44,-13.44,-13.44
-8.46,-5.13,0.14,-15.54,-16.10,-16.10
-8.77,-5.38,0.44,-16.59,-16.59,-16.59
-8.87,-5.69,0.72,-15.40,-15.40,-15.40
-8.73,-5.59,0.89,-14.35,-14.35,-14.35
-8.26,-5.45,1.05,-13.93,-13.93,-13.93
-7.95,-5.37,1.30,-13.72,-13.72,-13.72
-7.84,-5.27,1.70,-13.30,-13.30,-13.30
-7.81,-5.23,1.93,-12.32,-12.32,-12.32
-7.76,-5.25,2.31,-9.52,-9.52,-9.52
-7.39,-5.12,2.55,-6.93,-6.93,-6.51
-6.89,-5.06,2.79,-2.59,-2.59,-1.89
-6.64,-5.20,2.87,3.50,3.50,3.50
-6.74,-5.27,3.02,10.15,10.15,10.15
-7.10,-5.18,3.19,14.35,14.98,14.98
-7.40,-4.93,3.68,19.88,19.88,20.44
-7.55,-4.74,3.85,22.96,23.80,24.50
-7.37,-4.46,3.94,26.95,27.86,28.28
-7.23,-4.15,3.97,30.73,30.73,30.73
-7.29,-3.80,4.16,33.11,33.39,33.39
-7.34,-3.50,4.28,34.58,34.79,34.79
-7.15,-3.26,4.52,34.37,34.37,34.16
-6.80,-3.04,4.53,32.13,32.13,31.71
-6.47,-2.81,4.64,26.53,26.53,25.41
-6.40,-2.69,4.74,15.75,15.75,15.75
-5.89,-2.19,5.11,-1.82,-1.82,-1.82
-5.63,-2.12,5.02,-18.69,-18.69,-18.69
-5.59,-2.27,4.71,-35.91,-35.91,-35.91
-5.82,-2.48,4.44,-48.23,-51.94,-51.94
-6.13,-2.64,4.27,-60.90,-60.90,-62.58
-6.67,-2.90,4.13,-62.58,-62.58,-62.58
-7.45,-3.33,4.14,-53.55,-53.55,-53.55
-8.27,-3.23,4.15,-39.83,-39.83,-36.26
-8.48,-2.69,4.18,-25.27,-24.08,-24.08
-8.67,-2.53,3.71,-17.57,-17.57,-17.29
-8.77,-2.09,3.66,-16.38,-16.66,-16.73
-9.00,-1.58,3.23,-23.87,-23.87,-24.36
-9.74,-2.12,2.80,-24.92,-24.92,-24.57
-10.40,-2.50,2.37,-18.97,-18.97,-18.97
-11.27,-2.68,2.08,-13.44,-13.44,-13.44
-11.58,-2.61,2.01,-5.60,-5.60,-5.60
-11.69,-2.92,1.67,-1.33,-0.21,-0.21
-11.53,-2.91,1.29,2.59,2.59,2.87
-11.14,-2.67,1.10,2.73,2.73,2.73
-10.84,-2.57,0.92,-0.98,-0.98,-0.98
-10.35,-2.43,0.87,-3.92,-3.92,-4.97
-10.17,-2.58,0.56,-7.49,-7.49,-7.49
-9.56,-2.23,-0.45,-8.47,-8.47,-8.47
-9.84,-2.19,0.67,-10.43,-10.43,-12.18
-10.29,-1.76,0.28,-17.43,-17.43,-17.43
-10.04,-1.56,-0.31,-27.16,-27.16,-27.16
-9.67,-1.83,-0.31,-31.43,-31.43,-31.99
-9.66,-2.11,0.32,-33.11,-33.11,-33.11
-10.11,-2.31,0.11,-30.31,-30.31,-30.31
-10.34,-2.14,1.00,-28.91,-28.91,-28.91
-9.93,-3.13,0.91,-29.54,-30.10,-30.10
-9.71,-4.14,0.29,-30.87,-30.87,-30.66
-9.41,-4.31,0.57,-29.40,-29.40,-29.40
-9.58,-4.18,1.00,-28.14,-28.14,-28.14
-9.83,-3.72,1.74,-28.00,-28.00,-28.14
-9.87,-3.57,1.94,-29.05,-29.05,-29.05
-10.54,-3.53,1.44,-28.98,-28.98,-28.98
-11.19,-3.71,1.30,-25.62,-24.85,-24.85
-11.90,-3.92,1.17,-23.17,-23.17,-23.17
-12.15,-2.68,2.06,-22.05,-22.05,-21.56
-11.97,-2.68,2.11,-18.62,-18.62,-18.20
-11.51,-2.65,2.31,-16.52,-16.52,-16.24
-10.98,-2.74,2.49,-15.19,-15.19,-14.98
-10.33,-2.76,2.72,-12.88,-12.88,-12.53
-9.85,-2.93,2.83,-8.75,-8.75,-8.33
-9.13,-2.80,3.12,-6.51,-5.81,-5.46
-8.36,-2.83,3.48,-3.78,-3.78,-2.80
-6.79,-2.92,4.46,6.51,6.51,7.63
-6.20,-3.14,4.96,15.05,15.05,16.17
-5.90,-3.18,5.36,22.96,22.96,23.94
-5.59,-3.06,5.73,28.49,28.49,28.98
-5.19,-2.97,6.08,31.99,31.99,31.99
-4.88,-2.82,6.31,33.81,33.81,33.81
-4.70,-2.67,6.70,35.56,36.33,36.33
-4.43,-2.86,7.26,39.20,39.20,40.32
-3.85,-2.86,7.82,43.47,43.47,43.47
-3.07,-2.59,7.88,46.90,46.90,46.90
-2.43,-2.25,8.14,46.20,46.20,46.20
-1.87,-1.95,8.47,42.14,42.14,42.14
-1.52,-1.63,8.69,35.49,35.49,35.49
-1.24,-1.56,8.87,25.90,25.90,25.90
-0.82,-1.55,8.91,18.90,18.90,18.90
-0.76,-1.69,9.08,13.44,13.44,13.44
-0.96,-1.72,9.38,4.55,4.55,4.55
-1.12,-1.81,9.38,-1.05,-1.05,-1.05
-1.11,-1.96,9.33,-5.32,-6.79,-6.79
-1.30,-2.10,9.27,-8.96,-8.96,-8.96
-1.64,-2.18,9.20,-10.22,-10.36,-10.36
-1.95,-2.27,9.16,-10.78,-10.78,-10.78
-2.30,-2.59,9.34,-10.36,-10.36,-10.36
-2.68,-2.72,9.30,-9.45,-9.45,-9.45
-2.85,-2.76,9.17,-6.79,-6.79,-6.79
-2.99,-2.75,9.09,-4.20,-4.20,-4.20
-3.03,-2.61,9.09,-1.05,-0.77,-0.77
-3.11,-2.59,8.99,1.82,2.10,2.10
-3.24,-2.51,8.87,4.13,4.34,4.34
-3.50,-2.55,8.92,6.02,6.37,6.37
-3.64,-2.51,8.92,8.33,8.33,8.40
-3.71,-2.49,8.97,9.24,9.24,9.31
-3.79,-2.46,8.93,9.87,9.87,9.87
-3.79,-2.44,8.94,10.08,9.94,9.94
-3.74,-2.39,8.87,9.66,9.59,9.59
-3.51,-2.36,8.95,8.82,8.61,8.61
-3.31,-2.34,9.14,8.47,8.47,8.54
-3.38,-2.36,9.14,8.89,8.89,8.89
-3.50,-2.37,9.15,9.38,9.38,9.38
-3.52,-2.37,9.27,9.59,9.52,9.52
-3.58,-2.38,9.27,9.45,9.31,9.31
-3.71,-2.35,9.21,9.10,8.96,8.96
-3.86,-2.32,9.19,9.03,9.03,9.10
-3.90,-2.36,9.16,9.52,9.66,9.87
-3.96,-2.38,9.16,10.57,10.78,10.78
-4.06,-2.41,9.09,12.53,12.67,12.67
-4.10,-2.35,9.00,14.49,14.49,14.70
-4.23,-2.20,8.92,15.68,15.68,15.89
-4.27,-2.12,8.94,16.38,16.38,16.45
-4.36,-1.98,8.90,16.80,16.80,16.80
-4.48,-1.90,8.82,16.73,16.80,16.80
-4.51,-1.80,8.77,16.38,16.38,16.31
-4.48,-1.65,8.75,14.28,14.07,14.07
-4.53,-1.72,8.63,13.58,13.58,13.58
-4.51,-1.73,8.57,13.86,13.93,13.93
-4.51,-1.72,8.50,14.28,14.28,14.28
-4.62,-1.74,8.48,14.49,14.49,14.49
-4.72,-1.69,8.49,14.00,14.00,13.86
-4.74,-1.62,8.39,13.72,13.58,13.58
-4.80,-1.51,8.33,13.16,12.95,12.95
-4.81,-1.47,8.35,12.39,12.39,12.32
-4.85,-1.37,8.37,11.69,11.69,11.55
-4.96,-1.34,8.31,11.20,11.20,10.99
-5.05,-1.30,8.25,11.27,11.27,11.55
-5.06,-1.24,8.32,11.90,11.97,11.97
-5.13,-1.15,8.27,12.11,12.11,11.90
-5.16,-0.98,8.22,11.48,11.41,11.41
-5.55,-0.92,8.24,8.26,8.26,8.26
-5.65,-0.98,8.20,7.49,7.49,7.56
-5.73,-0.94,8.16,7.28,7.28,7.28
-5.82,-0.96,8.15,7.49,7.49,7.49
-5.88,-0.93,8.15,7.91,7.91,7.91
-5.98,-0.99,8.12,8.96,8.96,8.96
-6.14,-0.90,8.03,9.59,9.59,9.59
-6.16,-0.81,8.00,9.80,9.80,9.80
-6.25,-0.77,7.88,9.59,9.59,9.59
-6.37,-0.67,7.82,9.17,9.17,9.17
-6.37,-0.61,7.74,8.82,8.82,8.82
-6.43,-0.58,7.57,8.68,8.68,8.68
-6.53,-0.47,7.48,8.82,8.82,8.82
-6.59,-0.44,7.43,8.75,8.75,8.75
-6.65,-0.45,7.38,9.03,9.03,9.17
-6.75,-0.43,7.30,10.08,10.43,10.43
-6.78,-0.46,7.25,11.55,11.55,11.83
-6.78,-0.21,7.16,13.02,13.02,13.02
-6.78,-0.18,7.12,13.65,13.79,13.79
-6.81,-0.11,7.03,14.35,14.42,14.70
-6.81,-0.00,6.98,15.82,15.96,15.96
-6.89,0.11,6.90,17.01,17.01,17.08
-6.92,0.19,6.89,17.43,17.43,17.36
-6.92,0.22,6.83,17.36,17.50,17.50
-6.98,0.31,6.72,17.15,17.15,17.15
-7.06,0.35,6.68,16.87,16.66,16.66
-7.05,0.49,6.67,16.31,16.10,16.10
-7.07,0.59,6.60,15.54,15.54,15.40
-7.12,0.66,6.47,14.84,14.84,14.84
-7.23,0.70,6.41,14.49,14.35,14.35
-7.35,0.86,6.30,13.65,13.65,13.44
-7.64,0.98,6.14,11.34,11.34,11.13
-7.68,1.03,6.05,10.29,10.29,10.08
-7.60,1.22,5.89,9.73,9.73,9.73
-7.41,1.41,5.77,9.80,9.80,9.80
-7.12,1.84,5.73,10.01,10.01,10.01
-6.80,2.56,5.80,10.22,10.15,10.15
-6.73,3.19,5.84,10.36,10.36,10.64
-7.17,3.47,5.80,11.41,11.41,12.11
-8.05,4.02,5.45,16.52,16.52,17.01
-8.29,4.47,4.91,21.00,21.00,21.49
-8.41,4.83,4.33,25.06,25.06,25.76
-8.25,5.13,3.94,29.33,29.33,29.33
-8.14,5.21,3.37,34.72,34.72,35.42
-7.74,5.45,2.72,42.07,42.07,42.07
-7.12,5.67,2.41,47.95,47.95,47.95
-6.58,5.49,1.95,58.87,58.87,58.87
-6.51,5.14,1.43,69.86,71.68,71.68
-6.62,5.03,1.20,82.18,82.18,83.79
-6.22,5.43,0.99,95.76,95.76,95.76
-5.37,6.28,0.80,99.12,99.47,99.47
-4.48,7.15,0.62,97.86,97.86,96.39
-3.82,8.28,0.26,90.16,90.16,90.16
-3.22,9.45,-0.28,77.42,77.42,75.67
-2.77,10.28,-1.17,57.19,57.19,57.19
-1.70,10.75,-1.37,44.17,39.62,39.62
-1.02,11.35,-1.38,24.92,19.95,19.95
-0.40,12.04,-1.50,3.71,-2.10,-2.10
0.35,12.50,-1.58,-22.26,-22.26,-25.13
0.52,12.50,-1.68,-45.15,-45.15,-47.81
0.38,12.38,-1.72,-71.33,-71.33,-71.33
0.56,12.37,-1.60,-88.13,-88.13,-88.13
1.01,11.92,-1.11,-106.54,-124.46,-108.22
1.63,11.17,-0.60,-116.76,-119.56,-120.68
3.56,8.81,1.07,-125.02,-125.02,-122.99
5.25,6.43,2.57,-110.11,-110.11,-107.80
3.60,6.25,2.23,-90.09,-87.36,-87.36
2.70,6.58,2.70,-62.02,-62.02,-59.29
1.26,7.35,2.89,-42.77,-42.77,-40.67
0.31,7.90,3.16,-30.45,-26.60,-24.43
-0.03,7.93,3.28,-13.44,-8.47,-5.88
0.17,7.39,3.35,9.24,9.24,19.25
0.65,7.12,3.29,36.61,36.61,39.97
0.82,7.51,3.12,61.95,61.95,64.68
0.67,8.33,2.77,81.90,81.90,81.90
0.96,8.95,2.55,87.22,87.92,87.92
1.40,9.27,2.19,88.06,87.85,87.85
3.09,9.03,1.35,75.53,75.53,75.53
3.29,9.25,0.84,68.81,68.81,68.81
3.57,9.37,0.56,64.05,63.21,63.21
3.85,9.90,0.02,56.84,56.84,55.93
4.92,9.80,0.05,46.62,46.62,45.57
6.27,9.32,0.22,37.52,37.52,36.47
7.17,8.71,0.11,30.66,30.66,27.16
7.35,8.21,-0.37,20.37,20.37,20.37
7.90,7.67,-0.29,11.55,11.55,11.55
8.28,7.04,-0.28,6.16,6.16,6.16
8.30,6.83,-0.13,1.26,1.26,1.26
7.64,6.87,-0.21,-4.27,-4.27,-4.27
6.98,6.98,-0.49,-9.52,-9.52,-9.52
6.85,6.98,-0.29,-11.55,-11.55,-11.20
6.82,6.35,0.05,-0.42,-0.42,-0.42
6.89,5.57,0.24,14.98,14.98,14.98
5.97,5.22,0.35,51.94,51.94,51.94
5.82,5.11,0.16,64.47,64.47,64.47
7.28,4.39,-0.77,80.85,78.33,78.33
7.95,5.02,-1.40,66.43,66.43,63.91
9.15,5.30,-1.79,44.59,44.59,44.59
11.02,4.58,-2.31,7.00,7.00,7.00
11.37,3.91,-2.33,-3.36,-3.36,-3.36
11.94,3.38,-2.46,-6.86,-6.86,-6.86
11.82,2.73,-2.68,-6.79,-6.79,-6.79
11.58,1.78,-2.26,1.12,1.12,1.12
11.85,1.13,-1.57,5.04,5.04,5.04
12.14,0.82,-1.26,9.87,9.87,9.87
12.44,0.67,-0.86,17.71,17.71,17.71
12.60,0.96,-0.61,20.86,20.86,20.86
12.68,1.29,-0.03,20.58,20.09,20.09
12.51,1.44,0.31,13.37,12.46,12.46
12.60,1.35,0.58,7.28,7.28,6.44
12.76,2.04,0.77,-1.12,-1.12,-2.45
13.04,2.55,0.95,-17.01,-17.01,-17.01
13.20,2.71,0.98,-26.25,-28.42,-28.42
13.11,2.12,1.28,-32.06,-32.06,-31.99
12.78,1.79,1.51,-28.49,-28.49,-28.49
12.16,1.46,1.77,-24.15,-22.68,-22.68
11.39,0.83,2.11,-17.08,-14.98,-14.98
10.59,0.22,2.39,-8.47,-8.47,-6.44
9.74,-0.32,2.64,-0.84,-0.84,-0.84
8.90,-0.47,2.95,5.81,5.81,5.81
8.13,-0.53,3.27,7.98,7.98,7.98
7.37,-0.76,3.59,8.19,8.05,8.05
6.59,-0.84,4.02,7.42,7.42,7.42
4.42,-1.61,5.51,7.49,7.49,7.56
2.28,-1.67,6.56,3.15,3.15,2.38
1.62,-1.40,7.00,-6.72,-6.72,-8.19
0.43,-1.35,7.39,-29.82,-29.82,-29.82
0.05,-1.24,7.24,-44.24,-45.85,-45.85
-0.52,-1.20,7.03,-56.35,-58.10,-58.10
-1.01,-1.15,6.78,-72.38,-72.38,-72.38
-1.62,-1.09,6.40,-86.03,-86.03,-86.03
-2.46,-1.36,6.17,-96.32,-97.58,-97.58
-3.30,-1.65,6.00,-106.82,-106.82,-106.82
-4.59,-2.27,6.00,-123.76,-126.56,-126.56
-4.91,-2.67,6.01,-130.13,-131.60,-131.60
-4.66,-2.94,5.87,-133.42,-134.26,-134.26
-3.82,-3.03,5.79,-135.38,-135.38,-135.38
-2.86,-2.90,5.44,-137.20,-137.90,-137.90
-2.16,-3.13,4.95,-140.49,-141.05,-142.59
-0.18,-3.43,4.35,-148.54,-149.24,-149.24
1.24,-3.87,3.61,-155.19,-155.19,-155.68
3.18,-4.27,2.54,-160.51,-160.51,-160.51
5.39,-5.21,1.68,-159.88,-159.88,-159.88
7.61,-6.14,0.96,-156.59,-156.59,-156.59
9.21,-6.72,0.14,-147.35,-147.35,-147.35
10.17,-7.50,-0.33,-139.02,-135.94,-135.9
10.80,-8.21,-0.90,-125.09,-121.31,-121.3
11.35,-8.72,-1.24,-109.06,-109.06,-104.7
11.47,-9.05,-1.35,-92.05,-92.05,-92.05
11.13,-9.83,-1.34,-76.02,-76.02,-76.02
10.64,-10.56,-1.34,-59.29,-59.29,-59.29
10.51,-10.68,-1.21,-50.47,-50.47,-50.47
10.45,-10.83,-1.20,-46.27,-46.27,-46.27
10.30,-10.97,-1.13,-42.70,-42.70,-42.70
10.10,-10.87,-1.15,-36.54,-35.35,-35.35
9.80,-10.81,-1.02,-28.91,-23.94,-23.94
9.25,-10.78,-0.93,-13.86,-11.69,-7.14
8.48,-10.65,-0.92,5.18,7.91,13.02
7.93,-10.27,-0.97,25.90,25.90,28.49
7.31,-9.55,-1.17,49.56,49.56,51.59
6.77,-8.95,-1.32,62.58,62.58,62.58
6.46,-8.22,-1.46,72.10,73.43,73.43
6.26,-7.55,-1.54,74.83,74.69,74.69
6.37,-6.91,-1.52,71.26,71.26,71.26
6.35,-6.46,-1.29,62.51,62.51,62.51
6.25,-6.25,-0.90,56.21,56.21,56.21
6.03,-6.28,-0.42,52.99,52.99,52.99
5.35,-6.53,0.05,53.97,53.97,53.97
4.75,-6.79,0.76,58.52,59.15,59.15
4.53,-6.99,1.21,64.40,65.10,65.10
4.47,-7.08,1.58,70.91,71.82,71.82
4.69,-7.03,1.79,75.74,77.77,77.77
5.22,-7.08,2.05,80.85,80.85,80.85
5.82,-7.04,2.34,81.62,81.41,81.41
6.50,-6.98,2.55,80.22,78.89,78.89
7.32,-7.05,2.97,75.32,74.90,74.90
7.48,-7.37,3.56,72.66,72.66,72.73
7.37,-7.54,3.94,73.64,73.64,73.92
7.07,-7.60,4.38,76.30,76.30,76.72
6.74,-7.39,4.88,80.08,80.08,80.08
6.31,-7.18,5.11,82.18,82.74,82.74
5.96,-6.80,5.28,84.07,84.21,84.21
5.81,-6.22,5.47,84.00,84.00,83.44
5.61,-4.98,5.73,75.60,75.60,75.60
5.58,-4.42,5.94,65.31,65.31,65.31
5.45,-4.11,6.08,55.30,55.30,55.30
5.21,-3.81,6.19,47.18,44.38,44.38
4.99,-3.68,6.32,36.54,36.54,34.16
5.02,-3.67,6.35,27.23,27.23,25.06
5.08,-3.76,6.45,19.25,19.25,19.25
5.15,-3.89,6.54,12.32,11.62,11.62
5.18,-3.98,6.58,7.00,6.51,6.51
5.25,-4.10,6.60,2.59,2.17,2.17
5.34,-4.30,6.60,0.56,0.00,0.00
5.40,-4.51,6.61,-0.63,-0.49,-0.63
5.45,-4.69,6.65,0.14,0.14,0.28
5.46,-4.80,6.62,1.40,1.40,1.40
5.60,-4.86,6.68,3.01,3.01,3.01
5.77,-4.91,6.71,5.18,5.18,5.53
5.94,-4.88,6.79,8.26,8.26,8.26
6.20,-4.79,6.81,9.52,9.66,9.66
6.31,-4.79,6.83,10.85,11.20,11.20
6.23,-4.76,6.81,12.46,12.46,12.39
6.18,-4.68,6.77,12.32,12.32,12.32
6.07,-4.71,6.75,11.90,11.90,11.90
5.92,-4.73,6.76,12.46,12.53,12.53
5.87,-4.72,6.82,13.37,13.37,13.44
5.79,-4.71,6.85,14.98,14.98,15.26
5.66,-4.71,6.86,16.17,16.17,16.38
5.60,-4.60,6.90,17.01,17.01,17.08
5.62,-4.45,6.91,16.87,16.66,16.52
5.61,-4.31,6.87,15.19,15.05,15.05
5.57,-4.34,6.94,13.86,13.86,13.65
5.57,-4.28,6.97,13.02,12.53,12.39
5.50,-4.29,6.94,11.41,10.99,10.85
5.41,-4.40,7.00,10.01,9.80,9.73
5.38,-4.53,6.99,9.17,9.17,9.17
5.30,-4.66,6.98,9.66,9.66,9.66
5.27,-4.77,6.95,12.11,12.11,12.11
5.22,-4.86,6.90,14.14,15.05,15.05
5.06,-4.94,6.75,17.78,17.78,18.83
4.90,-5.00,6.58,22.19,22.19,22.19
4.85,-4.97,6.17,34.23,34.23,34.23
4.99,-4.88,6.03,40.39,40.39,40.39
5.37,-4.72,5.97,44.38,45.50,45.50
5.80,-4.55,5.94,48.23,48.23,48.93
6.37,-4.40,6.12,50.05,50.05,50.05
7.01,-4.28,6.36,49.14,48.79,48.79
8.23,-4.14,7.14,43.82,43.82,43.19
8.42,-4.08,7.63,41.79,41.79,41.44
8.24,-3.95,7.72,39.83,39.83,39.62
7.59,-3.95,7.70,37.24,37.24,37.24
6.82,-3.93,7.65,35.35,34.65,34.65
6.17,-3.88,7.48,32.06,31.36,31.36
5.61,-3.86,7.25,29.05,28.42,28.42
5.19,-3.78,7.14,26.60,26.60,25.97
4.81,-3.78,6.99,23.94,23.94,23.94
4.47,-3.97,6.87,23.17,23.17,23.17
4.22,-4.09,6.82,25.06,25.06,25.06
4.24,-4.20,6.77,27.02,27.37,27.37
4.36,-4.23,6.76,30.03,30.87,30.87
4.72,-4.19,6.81,33.18,33.53,33.53
5.04,-4.10,6.80,35.07,35.07,35.07
5.25,-3.90,6.86,35.14,34.72,34.44
5.47,-3.73,6.93,32.76,32.76,31.57
5.58,-3.60,7.05,29.82,29.82,28.91
5.59,-3.43,7.21,27.44,27.44,27.16
5.40,-3.09,7.64,25.20,25.20,25.20
5.22,-2.81,8.14,24.50,24.50,24.50
5.05,-2.28,8.55,24.64,24.64,24.64
4.80,-1.58,9.10,27.16,27.16,27.16
4.43,-1.16,9.57,29.96,29.96,30.38
4.28,-0.38,10.40,34.86,34.86,35.28
4.40,0.54,10.90,37.87,37.87,38.43
4.56,1.34,10.89,40.46,40.46,40.74
4.81,2.08,10.83,44.45,44.94,44.94
5.07,2.66,10.51,47.74,47.74,47.88
5.11,3.26,10.18,47.11,47.11,46.90
5.00,3.51,9.77,44.24,44.24,44.24
4.61,3.51,9.21,38.92,38.92,38.92
3.69,3.35,8.72,35.07,34.37,34.37
2.94,2.98,8.03,27.44,27.44,26.74
2.27,2.52,7.74,21.98,21.98,21.56
1.98,1.97,7.70,19.25,19.25,19.18
1.72,1.46,7.63,19.81,19.81,20.09
1.77,1.18,7.65,25.06,25.06,25.06
2.07,1.04,7.70,29.61,29.61,29.61
2.68,1.05,7.83,35.49,35.49,35.49
3.53,1.08,7.93,38.36,38.36,38.36
4.21,1.15,7.88,40.32,40.32,40.32
5.18,1.22,7.85,45.78,45.78,45.78
5.43,1.41,7.79,47.39,47.39,47.39
5.77,1.49,7.70,49.14,49.14,49.14
5.99,1.56,7.55,53.69,53.69,53.69
6.15,1.60,7.34,61.95,61.95,61.95
6.23,1.83,7.14,69.93,69.93,69.93
6.06,2.13,6.70,78.05,78.82,78.82
5.74,2.45,6.54,81.62,81.97,82.81
5.72,2.90,6.46,84.14,84.42,84.42
5.87,3.50,6.35,85.05,85.05,85.05
5.98,3.97,6.31,84.14,84.14,84.14
5.83,4.47,6.39,82.53,82.53,82.46
5.40,4.68,6.33,79.94,79.94,79.94
5.06,4.88,6.26,77.42,76.37,76.37
4.73,5.01,6.11,72.87,72.87,71.82
4.52,5.12,6.15,69.09,69.09,69.09
4.40,5.16,6.11,66.71,66.29,66.29
4.34,5.40,6.04,65.10,65.10,64.61
4.32,5.58,5.82,62.72,62.72,62.72
4.36,5.74,5.57,60.48,60.48,60.48
4.31,5.69,5.07,58.59,58.59,58.59
4.72,5.92,4.86,58.10,58.10,58.10
5.30,6.12,4.57,58.10,58.10,58.10
5.97,6.43,4.09,58.66,58.87,58.87
6.19,6.51,3.70,60.41,61.18,61.18
6.19,6.38,3.19,64.26,64.68,65.73
6.26,6.44,2.73,68.25,68.88,68.88
6.53,6.82,2.35,72.17,72.31,72.31
6.93,7.11,1.98,73.92,73.92,74.13
8.56,7.59,1.65,74.83,75.32,75.39
7.55,7.90,1.13,75.74,75.74,75.67
7.65,8.23,0.68,74.97,74.97,74.76
7.66,8.40,0.24,70.63,70.63,70.14
7.47,8.38,-0.06,64.82,64.82,63.91
7.35,8.35,-0.36,57.82,57.82,56.98
7.27,8.37,-0.59,52.64,51.03,50.19
7.29,8.45,-0.67,46.48,46.48,44.31
7.38,8.51,-0.79,39.55,39.55,39.55
7.33,8.45,-0.88,33.81,33.81,33.81
7.37,8.45,-0.85,30.10,30.10,30.10
7.31,8.53,-0.86,25.69,25.69,25.69
7.17,8.41,-0.95,20.93,20.44,20.44
7.02,8.28,-1.04,17.50,17.15,17.15
6.98,8.22,-1.55,5.25,5.25,5.25
7.08,8.32,-1.69,2.87,2.24,2.24
7.04,8.28,-1.81,1.12,1.12,1.05
7.00,8.14,-1.80,0.91,0.91,0.84
6.87,7.91,-1.81,0.98,0.98,0.91
6.70,7.67,-1.85,0.70,0.70,0.70
6.46,7.45,-1.95,-1.12,-1.47,-1.47
6.36,7.40,-2.20,-5.04,-5.04,-5.39
6.35,7.39,-2.35,-8.05,-8.05,-8.40
6.38,7.35,-2.49,-10.78,-10.78,-11.13
6.45,7.27,-2.60,-12.11,-12.11,-12.11
6.47,7.17,-2.65,-11.41,-11.41,-11.27
6.44,7.12,-2.70,-9.59,-9.17,-9.17
6.44,7.07,-2.72,-7.21,-7.21,-7.07
6.42,6.96,-2.74,-4.76,-4.76,-4.76
6.34,6.83,-2.82,-2.10,-1.82,-1.82
6.36,6.84,-2.93,-0.14,0.14,0.14
6.25,6.75,-2.95,2.24,2.24,2.24
6.17,6.69,-2.93,4.48,4.69,4.69
6.05,6.69,-2.92,5.53,5.53,5.67
6.00,6.66,-2.93,6.30,6.30,6.30
5.94,6.63,-2.94,7.00,7.00,7.00
5.91,6.68,-2.97,7.91,7.91,7.91
5.90,6.74,-2.98,9.17,9.17,9.17
5.91,6.79,-3.01,9.94,10.22,10.22
5.90,6.79,-2.99,11.41,11.41,11.62
5.89,6.79,-3.01,12.11,12.11,12.25
5.92,6.86,-3.05,12.32,12.18,12.18
5.93,6.91,-3.09,12.18,12.18,12.18
5.91,6.98,-3.10,12.53,12.53,12.46
5.89,6.95,-3.11,12.81,12.81,12.95
5.89,6.94,-3.10,13.02,13.02,13.02
5.86,6.93,-3.07,12.74,12.53,12.53
5.79,6.92,-3.01,11.83,11.83,11.83
5.82,7.04,-3.05,10.29,10.29,10.08
5.85,7.05,-3.04,8.89,8.89,8.82
5.86,7.04,-3.01,8.33,8.33,8.33
5.87,7.03,-2.99,8.05,8.12,8.12
5.83,6.97,-2.89,8.61,8.61,8.61
5.82,7.04,-2.91,8.75,8.75,8.68
5.87,7.09,-2.94,8.12,8.12,8.12
5.96,7.16,-2.98,7.63,7.63,7.63
5.97,7.16,-2.97,7.49,7.49,7.49
6.00,7.20,-3.00,7.49,7.56,7.56
5.98,7.18,-2.99,6.86,6.86,6.72
5.99,7.23,-2.98,5.88,5.39,5.18
6.01,7.23,-3.01,3.78,3.64,3.64
6.08,7.26,-3.05,1.40,1.40,1.26
6.08,7.24,-3.08,0.21,-0.28,-0.42
6.06,7.17,-3.06,-1.33,-1.68,-1.75
6.03,7.09,-3.04,-2.45,-2.73,-2.80
6.00,7.01,-3.03,-3.08,-3.08,-3.36
5.98,7.03,-3.06,-3.92,-3.92,-3.99
5.97,7.02,-3.08,-4.34,-4.34,-4.20
6.03,6.97,-3.16,-4.55,-4.55,-4.48
6.04,6.96,-3.17,-4.27,-4.27,-4.27
6.02,6.94,-3.13,-3.29,-3.29,-3.29
6.02,6.90,-3.15,-2.24,-2.03,-2.03
5.97,6.84,-3.18,0.00,0.00,0.00
5.98,6.85,-3.20,0.49,0.56,0.56
5.99,6.85,-3.21,0.84,0.84,1.12
5.98,6.84,-3.24,1.89,1.89,2.10
5.96,6.81,-3.25,2.80,2.80,2.80
5.95,6.82,-3.22,3.22,3.36,3.36
5.90,6.88,-3.20,3.50,3.50,3.50
5.90,6.94,-3.20,3.50,3.50,3.57
5.90,6.99,-3.18,3.36,3.36,3.36
5.88,7.03,-3.17,2.87,2.87,2.73
5.94,7.10,-3.20,1.89,1.89,1.89
5.92,7.11,-3.20,0.21,0.21,0.07
5.90,7.10,-3.18,-0.84,-1.05,-1.05
5.92,7.07,-3.17,-1.96,-1.96,-2.10
5.90,7.02,-3.14,-2.87,-2.87,-2.87
5.91,7.00,-3.14,-3.36,-3.43,-3.43
5.91,6.99,-3.14,-3.57,-3.78,-3.78
5.92,6.98,-3.15,-3.57,-3.57,-3.50
5.97,6.93,-3.17,-3.57,-3.57,-3.50
6.00,6.99,-3.17,-3.85,-3.85,-3.85
5.99,6.95,-3.16,-3.99,-3.99,-3.99
5.98,6.99,-3.21,-4.13,-3.99,-3.99
5.98,6.98,-3.21,-4.13,-4.13,-4.13
5.93,6.94,-3.15,-3.78,-3.78,-3.78
5.91,6.92,-3.17,-3.29,-3.29,-3.29
5.91,6.90,-3.16,-2.80,-2.80,-2.66
5.93,6.95,-3.18,-2.52,-2.45,-2.45
5.93,7.01,-3.21,-2.31,-2.31,-2.10
5.92,6.97,-3.17,-1.61,-1.61,-1.61
5.87,7.00,-3.13,-1.54,-1.75,-1.75
5.73,7.23,-3.14,-2.45,-2.45,-2.59
5.61,7.33,-3.20,-5.04,-5.04,-5.04
5.56,7.36,-3.16,-7.84,-7.84,-7.84
5.47,7.37,-3.13,-10.92,-10.92,-10.92
5.43,7.40,-3.13,-14.21,-15.75,-15.75
5.47,7.47,-3.18,-18.48,-19.04,-20.23
5.57,7.57,-3.27,-24.71,-24.71,-25.27
5.71,7.60,-3.31,-29.33,-29.33,-29.96
5.79,7.60,-3.28,-33.67,-33.67,-33.67
5.98,7.63,-3.36,-36.12,-36.12,-36.12
6.10,7.64,-3.37,-39.06,-39.06,-39.06
6.24,7.59,-3.36,-40.53,-40.53,-40.53
6.17,6.15,-3.19,-40.88,-40.88,-40.67
6.08,7.04,-2.89,-38.71,-38.71,-38.71
5.93,6.57,-2.62,-36.05,-36.05,-36.05
5.80,6.14,-2.33,-32.13,-32.13,-32.13
5.67,5.58,-2.02,-26.95,-26.39,-26.39
5.72,5.49,-2.02,-23.31,-23.31,-22.82
6.03,5.58,-2.32,-21.00,-20.72,-20.72
6.39,5.75,-2.79,-20.79,-20.79,-20.93
6.83,5.92,-3.21,-22.12,-22.12,-22.47
7.34,6.10,-3.50,-23.10,-23.10,-23.38
7.60,6.08,-3.63,-22.12,-22.12,-21.77
7.68,6.06,-3.62,-19.04,-19.04,-19.04
7.55,5.90,-3.53,-13.44,-13.44,-12.53
7.24,5.76,-3.31,-6.09,-6.09,-5.11
6.84,5.65,-3.02,3.92,3.92,3.92
6.56,5.65,-2.91,10.43,10.43,11.48
6.44,5.84,-2.86,18.20,18.20,18.20
6.39,6.08,-2.86,24.50,24.50,24.50
6.48,6.56,-2.93,28.49,29.61,29.61
6.66,7.24,-3.00,32.55,32.55,32.76
6.85,7.88,-3.08,33.04,33.04,33.04
6.94,8.22,-3.11,30.24,30.24,30.24
6.93,8.32,-2.97,25.34,25.34,25.34
6.84,8.23,-2.79,20.30,20.30,20.30
6.74,8.06,-2.64,13.79,12.04,12.04
6.65,7.97,-2.57,6.72,4.76,4.76
6.54,7.90,-2.46,-1.12,-1.12,-3.22
6.46,7.85,-2.37,-11.69,-11.69,-11.69
6.27,7.65,-2.26,-19.25,-20.16,-20.16
6.06,7.37,-2.07,-26.46,-27.37,-27.37
5.86,6.99,-1.88,-32.20,-32.76,-32.76
5.74,6.74,-1.86,-35.63,-36.05,-36.05
5.80,6.49,-1.91,-36.96,-37.03,-37.03
6.01,6.30,-2.12,-34.65,-34.65,-34.65
6.33,5.89,-2.19,-16.52,-14.84,-14.84
6.47,5.88,-2.45,-0.49,-0.49,0.98
6.71,5.91,-2.67,8.12,10.85,12.04
6.82,5.94,-2.90,19.32,19.32,19.32
6.79,5.88,-2.90,24.92,26.39,27.09
6.65,5.93,-2.88,30.10,31.29,31.71
6.42,5.98,-3.02,34.86,35.28,35.28
6.17,5.93,-3.09,38.92,39.27,39.27
6.01,5.90,-3.20,41.72,42.00,42.00
5.85,5.96,-3.26,43.82,44.17,44.17
5.82,6.25,-3.47,45.64,45.64,45.71
5.77,6.56,-3.62,46.41,46.41,46.41
5.68,6.76,-3.73,46.06,45.92,45.92
5.76,6.77,-3.64,44.59,43.33,43.33
5.88,6.78,-3.49,40.46,39.55,38.01
5.99,6.93,-3.27,32.83,31.64,29.47
6.11,7.15,-3.30,23.31,22.19,22.19
6.29,7.37,-3.30,11.27,10.01,10.01
6.41,7.39,-3.28,3.22,2.38,2.38
6.54,7.50,-3.31,-3.08,-3.78,-3.78
6.59,7.63,-3.26,-7.35,-7.77,-7.77
6.66,7.70,-3.14,-12.04,-12.04,-12.53
6.79,7.84,-3.02,-15.12,-15.12,-15.47
7.03,7.99,-2.83,-19.74,-19.74,-19.74
7.11,7.95,-2.57,-22.47,-23.31,-23.31
7.25,7.93,-2.20,-26.18,-26.18,-27.23
7.60,8.02,-1.89,-37.94,-37.94,-37.94
7.73,7.96,-1.56,-46.20,-47.04,-47.04
7.98,7.88,-1.30,-51.87,-54.67,-54.67
8.16,7.83,-0.92,-59.43,-60.34,-60.34
8.29,7.76,-0.45,-68.39,-69.16,-69.16
8.47,7.81,-0.21,-75.46,-76.23,-76.23
8.62,7.88,0.15,-80.71,-81.27,-81.27
8.48,7.84,0.65,-84.49,-84.70,-84.70
8.90,8.00,1.30,-87.22,-87.22,-87.22
8.86,7.95,1.66,-89.67,-89.67,-89.67
9.03,7.85,1.98,-92.61,-92.61,-92.61
9.19,7.74,2.43,-96.81,-97.37,-97.37
9.37,7.73,2.54,-100.80,-103.25,-103.25
9.38,7.78,2.59,-109.90,-109.90,-109.90
9.32,7.67,2.61,-117.32,-117.32,-117.32
9.16,7.38,2.86,-123.83,-123.83,-123.83
8.78,7.18,3.09,-126.14,-126.91,-126.91
8.31,6.67,3.30,-128.45,-128.73,-128.73
7.72,6.10,3.54,-129.36,-129.36,-129.43
6.79,5.21,3.82,-128.03,-127.68,-127.68
6.06,4.45,4.11,-122.08,-122.08,-122.08
5.35,3.78,4.43,-112.07,-110.74,-110.74
4.81,3.21,4.66,-103.60,-98.91,-98.91
4.28,2.88,5.04,-90.65,-88.90,-88.90
3.72,2.56,5.46,-74.69,-74.69,-74.69
3.21,2.39,6.01,-58.73,-57.12,-57.12
2.68,2.16,6.28,-46.83,-45.15,-45.15
2.48,2.23,6.66,-31.08,-31.08,-29.75
2.48,2.53,6.95,-23.87,-22.19,-21.28
2.51,2.83,7.16,-18.69,-18.06,-17.92
2.42,3.01,7.31,-17.71,-18.06,-18.06
2.23,2.90,7.53,-18.69,-18.69,-18.97
2.10,2.72,7.78,-19.46,-19.53,-19.74
1.92,2.62,7.97,-20.30,-20.30,-20.65
1.71,1.23,8.04,-20.72,-20.72,-20.79
1.44,2.11,8.16,-17.92,-17.92,-17.92
1.35,1.87,8.43,-12.53,-12.53,-12.53
1.45,1.79,8.70,-5.74,-5.74,-5.74
1.53,1.78,8.76,-0.56,-0.56,-0.56
1.60,1.82,8.71,6.02,6.02,6.02
1.78,1.91,8.63,9.59,10.92,10.92
1.75,2.00,8.65,14.84,16.03,16.03
2.12,2.44,8.94,18.62,18.62,18.97
1.96,2.68,8.94,18.76,18.76,18.76
2.37,3.01,9.06,16.94,16.94,16.31
2.58,3.21,9.26,11.69,11.69,11.69
2.85,3.50,9.36,7.70,6.30,6.30
2.60,3.37,9.38,2.94,2.94,2.94
2.50,3.41,9.64,-0.84,-0.84,-0.84
2.62,3.54,9.83,-2.24,-2.24,-2.24
2.55,3.60,9.87,-1.82,-1.33,-1.33
2.10,3.28,9.60,2.03,2.03,2.73
1.82,2.97,9.24,10.92,10.92,10.92
1.63,2.79,8.84,20.51,20.51,20.51
1.66,2.77,8.57,28.28,30.66,30.66
2.19,3.04,8.24,37.03,38.78,38.78
2.86,3.47,7.74,43.05,43.05,43.05
3.53,3.97,7.44,42.49,42.49,42.49
4.40,4.63,7.19,36.89,36.89,36.89
5.04,5.13,7.18,28.35,23.94,23.94
5.41,5.33,7.24,15.96,14.35,11.06
5.55,5.46,7.35,-0.35,-0.35,-1.89
5.47,5.29,7.58,-14.00,-14.00,-14.00
5.36,4.94,7.88,-20.30,-20.30,-20.30
5.19,4.47,8.23,-24.08,-24.36,-24.36
4.95,4.08,8.24,-25.20,-25.20,-25.06
4.91,3.91,8.12,-24.78,-24.78,-24.71
5.06,3.73,7.86,-25.06,-24.99,-24.99
5.25,3.62,7.63,-26.11,-26.25,-26.25
5.45,3.55,7.38,-27.86,-27.86,-28.35
5.59,3.41,7.13,-30.38,-30.38,-30.38
5.68,3.24,7.03,-31.99,-31.99,-31.99
5.66,3.04,6.94,-32.62,-32.62,-32.62
5.48,2.74,7.02,-30.66,-30.66,-30.66
5.29,2.49,7.08,-25.20,-24.36,-24.36
5.08,2.27,7.11,-19.39,-18.55,-18.55
4.91,2.13,7.20,-10.99,-8.96,-7.63
5.41,3.02,7.28,22.05,22.05,22.05
5.37,3.34,7.25,26.88,27.30,27.30
5.39,3.55,7.12,30.45,30.45,30.66
5.19,3.56,6.99,33.46,33.46,33.88
4.86,3.47,6.82,37.94,37.94,38.78
4.28,3.24,6.68,42.98,45.22,46.27
3.73,3.15,6.55,52.29,52.29,56.14
3.23,3.28,6.39,62.51,62.51,63.77
3.02,3.79,6.17,72.87,72.87,72.87
3.41,4.59,6.00,79.45,79.52,79.52
4.05,5.17,6.17,78.54,78.26,78.26
4.48,5.36,6.09,76.58,76.51,76.51
4.96,5.58,5.92,75.53,75.46,75.18
5.54,5.90,5.76,74.48,74.48,74.27
5.94,5.90,5.63,72.52,72.52,72.45
5.84,5.34,5.59,74.41,74.41,75.11
5.57,4.67,5.42,86.66,86.66,86.66
5.66,4.47,5.11,96.74,99.68,99.68
6.07,4.64,4.62,107.31,107.31,109.41
6.44,4.70,3.98,115.08,115.08,115.08
6.99,5.07,3.35,123.41,123.41,123.41
7.47,5.30,2.91,126.98,127.89,127.89
7.70,5.66,2.20,129.50,129.50,129.57
7.64,5.92,1.64,127.61,127.61,127.61
7.87,6.26,1.39,124.18,122.64,122.64
7.93,6.06,1.15,118.37,118.37,116.97
7.95,5.76,0.51,114.38,114.38,114.38
8.12,6.12,0.09,110.18,110.18,110.18
8.12,6.38,-0.47,105.21,103.25,103.25
8.14,6.60,-1.42,97.23,97.23,96.32
8.01,6.72,-1.91,89.95,88.20,88.20
7.97,6.63,-2.65,83.93,83.93,83.37
7.60,6.86,-3.42,81.48,81.34,81.34
7.30,7.19,-4.59,79.17,79.17,78.68
7.44,7.67,-5.19,74.83,74.83,74.06
7.61,7.72,-5.52,64.19,64.19,64.19
7.49,7.30,-5.16,53.13,52.22,52.22
6.97,6.71,-4.80,48.58,47.25,47.25
6.00,6.25,-4.74,47.11,47.39,47.39
5.25,6.21,-5.02,50.96,51.45,51.45
4.74,6.35,-5.32,53.06,53.34,53.34
4.53,6.43,-5.73,54.32,54.32,54.11
4.57,6.41,-5.79,52.99,52.57,52.29
4.66,6.24,-5.78,51.66,51.66,51.24
4.51,6.09,-5.93,50.75,50.75,50.75
4.29,6.05,-6.15,50.19,50.19,50.19
4.26,6.15,-6.39,49.28,48.72,48.72
4.36,6.29,-6.89,46.83,46.13,46.13
4.27,6.21,-7.39,44.31,44.31,44.17
4.22,5.96,-7.53,45.36,45.36,45.36
4.26,5.69,-7.60,48.72,48.72,49.28
4.43,5.67,-7.69,53.34,53.34,53.34
4.55,6.00,-7.82,55.44,55.44,55.65
4.38,6.29,-7.92,55.58,55.58,55.16
4.03,6.22,-7.57,52.50,52.50,52.50
3.80,6.13,-7.15,45.99,45.01,45.01
3.57,5.97,-6.92,40.32,37.24,37.24
3.37,5.92,-6.71,32.27,31.22,29.12
3.18,6.02,-6.76,21.00,21.00,21.00
3.01,6.09,-6.85,7.70,7.70,7.70
3.13,6.77,-6.93,-4.76,-4.76,-4.76
3.09,6.62,-6.99,-16.24,-16.24,-16.24
3.20,6.94,-7.06,-26.11,-26.11,-26.11
3.28,7.25,-7.11,-39.34,-40.95,-40.95
3.31,7.36,-7.28,-51.66,-51.66,-51.66
3.28,6.92,-7.49,-61.25,-61.88,-61.88
3.19,6.21,-7.43,-63.14,-63.14,-62.58
3.15,5.60,-7.36,-59.50,-59.50,-58.66
3.18,5.19,-7.33,-49.91,-48.58,-48.58
3.36,5.08,-7.37,-22.19,-22.19,-20.86
3.46,5.17,-7.28,-14.77,-12.81,-11.83
3.53,5.24,-7.10,-7.49,-7.49,-5.32
3.51,5.58,-7.14,-0.91,-0.91,-0.35
3.53,5.74,-7.26,2.45,2.45,2.73
3.62,5.99,-7.55,6.16,6.16,6.23
3.59,6.22,-7.61,5.32,5.32,5.32
3.53,6.27,-7.51,1.75,1.75,1.75
3.42,6.32,-7.48,-1.12,-1.12,-2.17
3.32,6.27,-7.31,-7.00,-7.00,-7.00
3.18,6.03,-7.05,-11.90,-12.53,-12.53
3.12,5.93,-6.99,-14.63,-14.98,-15.61
3.09,5.81,-6.91,-17.29,-17.64,-17.64
3.02,5.68,-6.82,-19.53,-19.53,-19.60
3.05,5.62,-6.87,-20.23,-20.23,-20.23
3.24,5.49,-7.08,-17.85,-17.85,-16.59
3.33,5.45,-7.13,-14.28,-14.28,-13.86
3.47,5.43,-7.19,-8.96,-8.96,-8.40
3.59,5.42,-7.21,-5.32,-5.32,-5.32
3.61,5.49,-7.22,-1.61,-1.61,-1.61
3.59,5.53,-7.14,1.26,1.26,1.26
3.53,5.58,-7.01,3.57,3.57,3.57
3.44,5.64,-6.96,4.69,4.69,4.69
3.41,5.72,-7.02,5.18,5.18,5.18
3.36,5.72,-6.90,5.60,5.67,5.67
3.32,5.73,-6.87,5.74,5.74,5.74
3.24,5.86,-6.94,5.25,5.18,5.18
3.23,5.94,-6.96,4.34,4.20,4.20
3.18,5.94,-6.91,3.71,3.71,3.64
3.19,5.94,-6.84,3.50,3.50,3.50
3.19,6.02,-6.85,2.87,2.87,2.66
3.19,6.00,-6.83,2.24,2.24,2.24
3.17,5.96,-6.71,1.82,1.82,1.82
3.19,6.00,-6.70,1.12,1.12,1.12
3.21,6.02,-6.67,-0.07,-0.07,-0.42
3.23,6.03,-6.69,-1.33,-1.33,-1.33
3.29,6.13,-6.72,-3.15,-3.15,-3.15
3.33,6.14,-6.77,-4.27,-4.27,-4.27
3.42,6.16,-6.81,-4.97,-4.97,-4.97
3.49,6.17,-6.75,-5.25,-5.25,-5.25
3.57,6.21,-6.69,-4.83,-4.83,-4.83
3.59,6.18,-6.62,-4.48,-4.41,-4.41
3.60,6.12,-6.51,-4.20,-4.20,-4.20
3.65,6.13,-6.48,-3.92,-3.92,-3.92
3.71,6.13,-6.48,-3.57,-3.57,-3.57
3.79,6.13,-6.47,-3.29,-3.29,-3.29
3.83,6.18,-6.54,-3.50,-3.50,-3.50
3.91,6.19,-6.61,-4.13,-4.34,-4.34
3.96,6.21,-6.65,-4.69,-4.90,-4.90
4.01,6.13,-6.58,-5.32,-5.25,-5.25
3.94,6.06,-6.56,-4.55,-4.55,-4.41
3.92,5.98,-6.52,-3.29,-3.29,-2.94
3.87,5.94,-6.47,-1.54,-1.54,-1.05
3.83,5.92,-6.42,0.63,0.63,0.63
3.78,5.94,-6.34,2.80,2.80,2.80
3.75,6.02,-6.44,4.20,4.20,4.20
3.77,6.09,-6.48,4.62,4.62,4.62
3.75,6.13,-6.47,4.55,4.55,4.41
3.76,6.14,-6.44,4.41,4.41,4.41
3.75,6.20,-6.47,3.85,3.85,3.85
3.73,6.19,-6.49,3.08,3.08,2.94
3.72,6.21,-6.44,2.17,2.17,2.24
3.70,6.20,-6.41,1.54,1.54,1.54
3.70,6.22,-6.45,1.05,1.05,1.05
3.74,6.25,-6.47,0.21,0.21,0.21
3.77,6.22,-6.48,-0.21,-0.21,-0.21
3.80,6.19,-6.50,-0.84,-0.91,-0.91
3.81,6.13,-6.42,-0.63,-0.63,-0.63
3.87,6.11,-6.40,-0.28,-0.28,-0.28
3.90,6.09,-6.38,0.07,0.14,0.14
3.94,6.12,-6.38,0.35,0.35,0.35
3.93,6.14,-6.38,0.49,0.49,0.49
3.96,6.14,-6.34,0.84,1.12,1.12
3.96,6.13,-6.27,1.33,1.33,1.47
4.00,6.16,-6.26,1.33,1.33,1.40
4.03,6.19,-6.24,1.19,1.19,1.19
4.08,6.19,-6.25,0.70,0.70,0.70
4.10,6.23,-6.24,0.28,0.28,0.00
4.13,6.27,-6.26,-0.63,-0.63,-0.63
4.18,6.30,-6.29,-1.75,-1.75,-1.75
4.25,6.29,-6.30,-2.73,-2.73,-2.73
4.27,6.23,-6.24,-3.08,-3.08,-3.08
4.33,6.21,-6.19,-3.15,-3.22,-3.22
4.38,6.21,-6.14,-4.62,-4.62,-4.83
4.40,6.16,-6.07,-5.88,-5.88,-5.88
4.41,6.13,-6.03,-6.37,-6.37,-6.37
4.38,6.11,-5.99,-6.37,-6.37,-6.44
4.43,6.11,-5.96,-5.95,-5.95,-5.95
4.45,6.11,-5.92,-5.25,-5.25,-5.25
4.43,6.11,-5.84,-4.48,-4.34,-4.34
4.47,6.17,-5.91,-4.34,-4.27,-4.27
4.47,6.22,-5.89,-4.20,-4.20,-4.20
4.47,6.24,-5.89,-4.27,-4.27,-4.27
4.48,6.27,-5.89,-4.13,-4.13,-4.13
4.49,6.25,-5.81,-3.78,-3.78,-3.78
4.47,6.27,-5.75,-3.85,-3.99,-3.99
4.47,6.30,-5.75,-4.69,-4.90,-4.90
4.47,6.37,-5.80,-5.81,-6.44,-6.44
4.50,6.37,-5.84,-7.14,-7.14,-7.35
4.56,6.28,-5.80,-7.49,-7.56,-7.56
4.62,6.26,-5.79,-6.79,-6.79,-6.72
4.66,6.22,-5.75,-5.88,-5.88,-5.67
4.68,6.17,-5.69,-4.97,-4.97,-4.90
4.69,6.19,-5.67,-4.55,-4.41,-4.20
4.69,6.15,-5.62,-4.06,-4.06,-4.20
4.74,6.16,-5.64,-4.13,-4.13,-4.13
4.82,6.15,-5.66,-3.78,-3.78,-3.64
4.87,6.15,-5.63,-3.15,-3.15,-3.15
4.92,6.17,-5.60,-2.52,-2.52,-2.52
4.98,6.19,-5.63,-2.52,-2.45,-2.66
4.98,6.22,-5.63,-2.87,-2.87,-2.87
4.96,6.22,-5.58,-3.15,-3.15,-3.08
4.95,6.20,-5.59,-3.22,-3.22,-3.29
4.95,6.20,-5.60,-3.22,-3.22,-3.15
4.97,6.24,-5.60,-3.15,-3.15,-2.87
5.00,6.20,-5.57,-2.59,-2.59,-2.31
4.96,6.20,-5.56,-1.96,-1.96,-1.96
4.93,6.21,-5.55,-1.61,-1.61,-1.61
4.91,6.17,-5.52,-1.47,-1.33,-1.33
4.91,6.21,-5.51,-1.19,-1.19,-0.98
4.86,6.22,-5.52,-0.84,-0.84,-0.84
4.85,6.24,-5.52,-0.49,-0.49,-0.49
4.84,6.21,-5.51,-0.21,-0.21,-0.21
4.81,6.19,-5.50,0.00,0.00,0.00
4.84,6.24,-5.47,0.35,0.35,0.28
4.81,6.26,-5.47,0.35,0.42,0.42
4.90,6.30,-5.52,0.49,0.49,0.49
5.02,6.30,-5.58,0.98,1.05,1.05
5.07,6.26,-5.58,2.24,2.24,2.24
5.07,6.24,-5.53,4.34,4.34,4.34
5.01,6.22,-5.48,5.53,5.88,5.88
4.92,6.33,-5.55,7.35,7.28,7.28
4.87,6.32,-5.49,7.21,7.21,7.28
4.83,6.35,-5.52,6.93,6.72,6.65
4.83,6.36,-5.52,6.02,5.74,5.74
4.82,6.38,-5.54,4.69,4.69,4.69
4.76,6.36,-5.49,3.71,3.71,3.71
4.72,6.31,-5.36,3.15,3.15,3.15
4.71,6.36,-5.34,2.73,2.73,2.66
4.75,6.38,-5.32,2.24,2.24,2.10
4.78,6.42,-5.40,0.98,0.98,0.98
4.84,6.44,-5.45,-0.14,-0.14,-0.14
4.92,6.47,-5.53,-1.40,-1.40,-1.40
4.93,6.45,-5.53,-3.29,-3.29,-3.29
4.93,6.38,-5.51,-4.20,-4.20,-4.20
4.90,6.34,-5.46,-5.25,-5.18,-5.18
4.89,6.28,-5.45,-5.60,-5.60,-5.60
4.90,6.27,-5.47,-5.81,-5.81,-5.81
4.91,6.23,-5.49,-5.39,-5.39,-5.39
4.91,6.13,-5.44,-4.41,-4.27,-4.27
4.92,6.12,-5.44,-3.15,-2.80,-2.80
4.93,6.14,-5.47,-1.68,-1.68,-1.68
4.94,6.18,-5.47,-0.63,-0.42,-0.42
5.00,6.17,-5.43,0.63,0.77,0.77
5.02,6.24,-5.47,1.82,1.82,2.03
5.02,6.28,-5.43,2.31,2.38,2.52
5.06,6.34,-5.49,2.45,2.45,2.45
5.07,6.36,-5.48,2.24,2.24,2.24
5.02,6.34,-5.45,1.61,1.61,1.61
4.98,6.37,-5.42,0.91,0.91,0.91
4.94,6.36,-5.40,0.21,0.21,0.21
4.98,6.40,-5.43,-0.63,-0.77,-0.77
4.93,6.36,-5.41,-1.05,-0.98,-0.98
4.92,6.35,-5.40,-1.12,-1.19,-1.19
4.91,6.34,-5.37,-1.12,-1.19,-1.19
4.90,6.32,-5.38,-1.19,-1.19,-1.19
4.91,6.32,-5.38,-1.19,-1.19,-1.19
4.93,6.32,-5.38,-1.54,-1.54,-1.54
4.97,6.33,-5.40,-1.89,-1.89,-1.89
5.00,6.31,-5.38,-2.03,-2.03,-2.17
5.01,6.32,-5.37,-1.89,-1.89,-1.89
5.01,6.31,-5.38,-1.96,-1.96,-1.96
5.03,6.34,-5.35,-2.10,-2.10,-2.10
5.05,6.35,-5.33,-2.73,-2.66,-2.66
5.03,6.36,-5.36,-3.43,-3.78,-3.78
5.06,6.37,-5.33,-5.81,-5.74,-5.74
5.03,6.35,-5.23,-5.18,-5.04,-5.04
5.04,6.36,-5.23,-4.83,-4.83,-4.83
5.03,6.38,-5.20,-4.69,-4.69,-4.69
5.09,6.57,-5.15,-6.51,-6.79,-6.79
5.12,6.68,-5.13,-7.56,-7.56,-7.63
5.12,6.72,-5.05,-8.12,-8.12,-8.12
5.08,6.78,-5.02,-8.26,-8.26,-8.26
5.06,6.84,-5.04,-8.26,-8.19,-8.19
5.11,6.88,-5.03,-7.98,-7.98,-7.91
5.23,6.93,-4.99,-7.84,-7.84,-7.84
5.40,6.96,-4.93,-7.91,-8.05,-8.05
5.50,6.81,-4.61,-9.45,-9.45,-9.45
5.58,6.81,-4.56,-12.95,-13.44,-13.44
5.56,6.78,-4.56,-16.80,-17.36,-17.36
5.73,6.74,-4.49,-20.09,-20.37,-20.37
5.80,6.68,-4.54,-21.49,-21.56,-21.56
6.30,6.43,-4.33,-23.66,-23.66,-23.80
6.34,6.24,-4.17,-24.43,-24.43,-24.43
6.42,6.26,-4.09,-26.39,-26.39,-26.39
6.39,6.16,-3.94,-27.86,-28.35,-28.35
6.15,5.98,-3.76,-30.38,-30.59,-30.59
6.27,5.94,-3.57,-33.11,-33.11,-33.32
6.42,5.97,-3.57,-32.83,-31.57,-30.73
6.23,5.47,-3.70,-24.36,-24.36,-18.90
5.84,4.97,-3.66,-3.78,-3.78,-3.78
5.72,4.75,-3.49,12.32,15.40,15.40
5.81,4.55,-3.32,22.61,22.61,24.36
6.06,4.42,-3.35,28.28,28.77,28.77
7.40,4.52,-4.60,28.77,28.77,28.49
7.65,4.53,-4.49,24.01,24.01,24.01
8.06,4.60,-4.70,19.88,17.99,17.99
8.76,4.63,-5.10,10.78,8.05,8.05
8.76,4.60,-4.91,-1.89,-1.89,-3.36
8.51,4.58,-4.55,-14.91,-14.91,-14.91
8.71,4.56,-4.73,-22.40,-22.40,-22.40
8.70,4.29,-4.87,-24.50,-24.50,-24.50
8.48,3.79,-4.64,-20.65,-20.65,-20.65
8.13,3.46,-4.31,-14.49,-14.49,-14.49
8.44,3.35,-4.22,-10.08,-8.75,-8.75
8.83,3.19,-4.30,-4.83,-4.27,-4.27
8.64,2.90,-3.97,-0.42,-0.42,1.19
8.51,2.63,-3.66,3.22,3.22,3.57
8.40,2.08,-3.36,7.21,7.21,7.21
8.59,1.79,-3.38,10.43,10.43,10.43
8.92,1.42,-3.55,12.95,13.65,13.65
9.16,1.12,-3.63,16.03,16.03,16.80
9.43,0.68,-3.64,20.30,20.30,20.30
9.66,0.37,-3.47,23.66,23.66,23.66
9.77,-0.06,-3.25,25.90,26.46,26.46
9.51,-0.52,-2.91,28.07,28.07,28.07
9.29,-0.90,-2.58,29.96,29.96,29.96
9.16,-1.06,-2.43,31.22,31.22,31.22
9.05,-1.27,-2.33,33.46,33.46,34.44
9.46,-1.68,-2.32,37.94,37.94,37.94
9.58,-2.57,-2.17,45.99,45.99,45.99
9.50,-3.19,-2.05,51.38,53.13,53.13
8.98,-4.22,-1.65,59.36,59.36,60.27
8.53,-5.02,-1.27,66.78,66.78,66.78
8.15,-5.92,-1.20,70.14,70.77,70.77
8.00,-7.13,-1.26,70.77,70.77,70.00
7.42,-7.55,-1.16,64.40,64.40,64.40
6.66,-6.75,-0.69,57.54,56.77,56.77
6.25,-6.25,-0.21,52.71,52.71,52.50
6.26,-6.07,-0.06,51.31,51.31,51.17
6.59,-6.05,-0.00,49.77,49.77,49.77
6.83,-5.93,0.13,48.02,48.02,47.88
7.13,-5.88,0.32,46.13,46.13,46.13
7.07,-5.73,0.56,41.65,41.65,41.65
6.72,-5.44,0.68,37.17,37.17,37.17
6.47,-5.35,0.72,29.89,28.91,28.91
6.24,-5.33,0.63,22.05,20.93,20.93
6.15,-5.37,0.48,15.12,14.21,14.21
6.35,-5.63,0.22,6.16,6.16,6.16
6.71,-5.95,-0.04,0.00,-0.42,-0.42
7.00,-6.23,-0.19,-2.31,-2.66,-2.80
7.29,-6.51,-0.28,-3.29,-3.29,-3.29
7.62,-6.81,-0.36,-2.87,-2.87,-2.87
7.75,-6.96,-0.48,-2.03,-2.03,-2.03
7.88,-7.10,-0.52,-1.40,-1.26,-1.26
7.92,-7.26,-0.49,-0.28,-0.28,-0.14
7.92,-7.25,-0.47,1.54,1.54,1.54
8.02,-7.30,-0.49,3.01,3.01,3.01
8.07,-7.26,-0.56,4.55,4.55,4.55
8.11,-7.16,-0.56,5.11,5.11,5.25
8.07,-7.09,-0.46,5.81,5.81,5.81
7.92,-6.86,-0.37,6.02,6.02,6.02
7.67,-6.69,-0.33,5.25,5.25,5.25
7.44,-6.53,-0.29,3.15,3.15,3.15
7.21,-6.42,-0.22,1.61,1.40,1.40
7.10,-6.35,-0.15,-0.28,-0.28,-0.28
6.98,-6.37,-0.11,-2.03,-2.03,-2.31
6.92,-6.45,-0.06,-4.76,-4.76,-5.04
7.01,-6.56,-0.01,-6.93,-7.21,-7.21
7.21,-6.76,-0.02,-9.38,-9.38,-9.52
7.34,-6.82,0.00,-10.57,-10.57,-10.57
7.39,-6.83,0.08,-11.62,-11.62,-11.62
7.54,-6.95,0.03,-12.18,-12.18,-12.18
7.59,-7.02,0.02,-13.02,-12.95,-12.95
7.55,-7.01,0.07,-12.81,-12.67,-12.67
7.38,-6.94,0.07,-12.39,-12.11,-12.11
7.26,-6.91,0.07,-11.62,-11.62,-11.62
7.17,-6.87,0.06,-10.92,-10.99,-10.85
7.09,-6.83,0.06,-10.36,-10.22,-10.22
7.06,-6.87,0.05,-9.80,-9.59,-9.59
7.03,-6.91,0.00,-9.17,-9.10,-9.10
6.99,-6.91,-0.01,-8.40,-8.40,-8.26
7.00,-6.98,0.01,-7.63,-7.63,-7.63
7.01,-7.01,0.05,-7.21,-7.21,-7.21
7.02,-7.04,0.02,-7.21,-7.21,-7.28
7.13,-7.11,-0.00,-7.84,-7.84,-7.84
7.26,-7.24,-0.01,-9.10,-9.10,-9.10
7.37,-7.35,-0.07,-10.43,-10.43,-10.43
7.28,-7.31,-0.09,-11.27,-11.27,-11.27
7.18,-7.23,-0.06,-11.83,-11.90,-11.90
7.14,-7.25,-0.19,-12.74,-12.74,-12.74
7.09,-7.26,-0.33,-13.51,-13.51,-13.51
7.02,-7.29,-0.44,-13.51,-13.51,-13.51
6.99,-7.37,-0.55,-13.16,-13.16,-12.95
6.91,-7.29,-0.58,-11.34,-11.34,-11.34
6.82,-7.08,-0.59,-9.66,-9.24,-8.89
6.78,-6.94,-0.61,-7.98,-7.98,-7.70
6.77,-6.83,-0.68,-7.63,-7.63,-7.77
6.72,-6.76,-0.70,-8.68,-8.68,-8.82
6.85,-6.81,-0.67,-10.01,-10.01,-10.22
6.90,-6.79,-0.59,-11.76,-11.76,-11.76
6.79,-6.62,-0.45,-12.81,-12.81,-12.81
6.59,-6.39,-0.34,-14.77,-14.77,-14.77
6.35,-6.27,-0.32,-16.66,-16.66,-16.66
6.25,-6.21,-0.32,-18.97,-18.97,-19.25
6.40,-6.29,-0.39,-20.37,-20.37,-20.37
6.53,-6.36,-0.40,-20.72,-20.72,-20.72
6.57,-6.45,-0.39,-20.02,-20.02,-19.81
6.60,-6.68,-0.44,-18.62,-18.62,-18.62
6.71,-6.94,-0.47,-18.20,-18.13,-18.13
6.90,-7.22,-0.61,-17.57,-17.57,-17.43
7.27,-7.53,-0.71,-16.66,-16.66,-16.38
7.53,-7.79,-0.86,-14.35,-14.35,-14.35
7.47,-7.78,-0.77,-11.55,-11.55,-11.55
7.11,-7.55,-0.64,-8.40,-8.40,-8.40
6.74,-7.29,-0.50,-5.25,-5.25,-5.25
6.41,-7.03,-0.55,-3.01,-2.17,-2.17
6.25,-7.00,-0.65,0.00,0.00,0.28
6.22,-7.03,-0.79,3.01,3.01,3.01
6.20,-7.11,-0.82,4.69,5.39,5.39
6.16,-7.21,-0.87,7.35,7.35,8.05
6.12,-7.34,-0.94,10.22,10.22,10.22
6.14,-7.35,-1.00,11.27,11.27,11.27
6.12,-7.37,-1.05,11.27,11.20,11.20
5.91,-7.39,-1.29,3.92,3.92,3.71
5.85,-7.43,-1.37,2.38,2.38,2.10
5.90,-7.47,-1.51,1.12,1.12,1.12
5.88,-7.49,-1.60,0.21,0.14,0.14
5.92,-7.64,-1.79,-0.28,-0.21,-0.21
5.99,-7.76,-1.95,0.14,0.35,0.35
6.08,-7.89,-2.09,0.91,1.05,1.33
6.31,-8.04,-2.26,1.75,1.96,1.96
6.48,-8.19,-2.42,2.73,2.94,2.94
6.46,-8.18,-2.40,3.15,3.22,3.22
6.50,-8.20,-2.42,3.64,3.64,3.64
6.48,-8.13,-2.34,4.55,4.62,4.62
6.48,-8.01,-2.29,5.18,5.18,5.18
6.44,-7.84,-2.27,5.11,5.11,5.04
6.38,-7.70,-2.27,4.20,4.20,4.20
6.33,-7.53,-2.28,3.29,3.01,3.01
6.24,-7.36,-2.31,1.89,1.89,1.47
6.26,-7.25,-2.34,-0.21,-0.21,-0.35
6.32,-7.27,-2.40,-2.24,-2.73,-2.73
6.39,-7.32,-2.46,-4.20,-4.20,-4.76
6.58,-7.47,-2.62,-6.79,-6.79,-6.79
6.66,-7.60,-2.71,-8.54,-8.89,-8.89
6.69,-7.56,-2.64,-10.92,-11.20,-11.20
6.72,-7.42,-2.58,-12.18,-12.18,-12.39
6.55,-7.16,-2.42,-13.79,-13.79,-13.79
6.12,-6.53,-2.20,-15.40,-15.40,-15.40
6.13,-6.36,-2.19,-16.10,-16.10,-16.10
6.17,-6.33,-2.23,-16.31,-16.38,-16.38
6.29,-6.39,-2.28,-16.38,-16.38,-16.38
6.53,-6.65,-2.39,-13.86,-13.44,-13.44
6.72,-6.81,-2.48,-12.81,-12.81,-12.81
6.87,-6.89,-2.49,-11.97,-11.97,-11.97
6.82,-6.84,-2.40,-10.99,-10.85,-10.85
6.80,-6.74,-2.28,-9.03,-9.03,-8.89
6.87,-6.65,-2.22,-7.42,-6.72,-6.51
6.90,-6.48,-2.17,-4.76,-4.76,-3.71
6.97,-6.35,-2.11,-1.89,-1.89,-1.61
7.06,-6.20,-2.02,1.54,1.54,1.82
7.28,-6.18,-2.01,4.13,4.13,4.48
7.56,-6.14,-1.99,6.30,6.30,6.72
7.82,-6.11,-1.88,9.38,9.38,9.38
7.97,-6.01,-1.74,11.55,11.55,11.55
8.26,-5.93,-1.63,12.95,13.09,13.09
8.56,-5.83,-1.48,13.86,13.93,13.93
8.90,-5.65,-1.28,14.07,14.07,13.93
9.09,-5.39,-1.00,12.60,12.60,12.60
9.12,-5.15,-0.82,10.85,10.29,9.87
9.07,-5.05,-0.60,6.65,6.65,6.65
8.85,-4.98,-0.52,2.87,2.87,2.87
8.62,-4.98,-0.52,0.28,-0.14,-0.14
8.51,-5.10,-0.46,-1.82,-1.82,-1.82
8.59,-5.20,-0.34,-2.66,-2.66,-2.66
8.74,-5.34,0.00,-1.96,-1.96,-1.96
8.81,-5.30,0.37,-0.28,-0.28,-0.28
8.98,-5.29,0.69,1.89,1.89,1.89
9.36,-5.33,0.92,4.48,4.90,4.90
9.90,-5.48,1.17,17.50,17.50,17.50
10.07,-5.52,1.34,21.42,21.84,21.84
9.86,-5.60,1.51,23.38,24.01,24.01
9.23,-5.53,1.93,24.85,24.85,24.85
8.65,-5.45,2.06,23.66,23.31,23.31
8.72,-5.32,1.90,21.07,19.11,19.11
9.09,-5.84,1.75,14.49,14.49,13.72
9.49,-6.66,1.84,9.10,9.10,9.10
9.12,-7.40,1.77,9.87,10.99,10.99
8.49,-7.80,1.12,16.17,16.17,17.15
7.26,-7.88,1.38,24.78,24.78,24.78
6.40,-8.43,1.11,24.85,24.01,24.01
5.66,-9.14,0.68,21.00,19.95,19.95
5.01,-9.11,0.45,18.13,17.99,17.99
4.34,-9.35,0.33,20.93,22.26,22.26
3.63,-9.72,0.09,27.86,30.03,30.03
3.52,-9.89,-0.62,37.80,37.80,40.60
3.10,-9.19,-0.80,52.43,52.43,52.43
2.72,-8.13,-0.23,63.91,64.82,64.82
1.95,-7.09,0.48,69.23,69.93,69.93
1.29,-6.52,0.98,75.67,75.67,76.16
0.79,-5.71,1.02,77.98,77.98,78.12
0.68,-5.09,0.98,77.07,77.07,76.79
0.57,-5.02,0.80,73.22,73.22,73.22
0.61,-4.68,0.94,67.34,67.34,67.34
0.67,-4.05,1.46,61.81,61.53,61.53
0.86,-3.94,1.64,61.25,62.37,62.37
0.81,-5.22,1.05,65.59,66.50,67.97
-0.20,-7.25,0.53,73.43,73.43,74.06
-1.47,-8.40,0.89,69.44,69.44,69.44
-2.03,-8.27,1.46,50.54,50.54,50.54
-2.01,-6.08,3.02,8.61,1.75,1.75
-2.73,-6.77,3.98,-66.85,-66.85,-74.34
-4.17,-9.45,3.54,-113.12,-113.12,-119.00
-5.15,-11.20,2.76,-161.77,-161.77,-161.7
-5.43,-12.18,2.15,-176.12,-176.12,-176.1
-5.43,-11.59,1.08,-174.23,-174.23,-174.2
-6.45,-11.03,-0.16,-160.51,-160.51,-160.
-8.70,-11.39,-1.55,-136.43,-136.43,-136.
-10.76,-11.96,-1.72,-87.01,-80.85,-80.85
-12.69,-11.72,-1.09,-43.26,-43.26,-43.26
-14.74,-11.06,-1.12,9.31,14.63,14.63
-15.73,-10.08,-1.62,53.83,53.83,57.12
-15.95,-8.17,-1.53,70.77,70.77,70.77
-15.05,-6.28,-1.51,71.40,69.86,68.88
-13.75,-4.72,-1.37,58.73,58.73,58.73
-12.74,-4.25,-1.03,46.41,45.43,45.43
-11.16,-4.14,-1.13,41.58,39.62,39.62
-8.85,-3.49,-0.80,35.35,34.65,34.65
-6.57,-2.69,0.09,26.46,26.46,26.46
-3.86,-1.72,0.38,18.76,18.76,17.71
-1.55,-0.96,0.09,9.66,9.66,8.47
-0.58,-0.57,-0.37,0.49,0.49,0.49
-0.33,-0.65,-0.25,-9.66,-9.66,-9.66
-0.39,-1.07,-0.18,-18.90,-18.90,-18.90
-1.16,-1.07,-0.18,-26.67,-26.67,-26.67
-3.50,0.07,-0.05,-34.79,-34.79,-34.79
-7.99,3.84,0.01,-36.33,-36.33,-36.33
-8.33,6.97,3.26,-37.03,-37.03,-37.03
-5.35,7.60,5.25,-19.25,-11.62,-11.62
-4.14,9.47,7.46,12.88,12.88,20.86
-6.73,10.40,6.72,46.55,50.12,50.12
-8.29,10.19,4.59,79.17,79.17,82.46
-8.35,10.38,3.58,101.43,101.43,104.65
-7.47,11.55,2.75,123.62,123.62,127.40
-5.44,13.88,2.29,130.13,130.13,130.13
-3.98,15.53,1.14,98.14,98.14,98.14
-2.81,16.66,0.77,39.55,49.21,49.21
-1.11,16.50,0.76,-31.99,-49.91,-41.44
1.07,16.03,0.06,-95.62,-95.62,-103.88
1.03,12.68,0.08,-154.28,-154.28,-160.58
1.14,11.50,-0.30,-211.12,-211.12,-229.04
1.50,10.82,0.09,-241.15,-241.15,-241.15
2.49,8.76,0.96,-269.92,-272.23,-272.23
2.40,5.15,1.94,-288.12,-288.19,-287.21
1.50,3.06,2.96,-280.98,-279.09,-274.54
1.02,1.34,4.07,-258.86,-255.01,-255.01
0.77,-0.19,5.75,-211.12,-211.12,-205.45
0.26,-0.75,6.81,-162.89,-162.89,-156.59
-0.74,-0.90,7.42,-119.14,-119.14,-119.14
-1.48,-0.43,7.89,-64.33,-64.33,-64.33
-1.79,0.47,8.08,-39.27,-39.27,-32.55
-2.35,1.54,8.22,-16.52,-16.52,-12.67
-2.79,3.39,8.63,-2.45,-2.24,-2.45
-2.46,3.75,8.91,-4.34,-4.90,-4.90
-2.01,4.04,9.08,-10.85,-10.85,-11.55
-1.76,4.03,9.19,-15.26,-16.52,-16.52
-1.24,3.46,9.25,-19.25,-19.25,-20.02
-0.51,3.12,9.30,-20.16,-20.16,-20.16
0.22,2.63,9.38,-16.52,-16.52,-15.19
0.63,2.44,9.48,-10.64,-10.64,-10.64
0.83,2.40,9.51,-3.78,-3.78,-3.78
0.94,2.59,9.39,-1.12,-0.21,-0.21
1.09,2.59,9.33,2.31,2.31,3.29
1.09,2.67,9.33,5.67,5.67,5.67
0.84,2.81,9.23,6.79,6.79,6.79
0.49,2.90,9.14,5.81,5.81,5.81
0.24,2.88,9.13,5.11,5.11,5.11
0.05,2.91,9.17,5.11,5.25,5.25
-0.21,2.90,9.18,5.25,5.25,5.32
-0.49,2.78,9.20,5.53,5.53,5.53
-0.68,2.58,9.18,8.26,8.68,8.68
-0.90,2.36,9.12,12.60,12.60,13.30
-0.99,2.40,9.20,17.36,18.13,18.13
-1.00,2.46,9.34,25.13,25.13,25.97
-0.97,2.64,9.38,29.54,31.08,31.08
-0.91,2.80,9.43,36.05,36.05,36.05
-0.84,3.23,9.47,41.37,41.79,41.79
-0.50,3.89,9.38,46.20,46.20,46.20
-0.10,4.11,9.35,49.21,49.63,49.63
0.23,4.23,9.24,52.01,52.01,52.50
0.60,4.40,9.02,53.90,53.90,54.04
