aX,aY,aZ,gX,gY,gZ
-7.84,-6.51,-1.40,-2.52,-2.73,-2.73
-7.86,-6.34,-1.43,-3.71,-3.71,-3.71
-7.85,-6.12,-1.45,-4.62,-4.62,-4.62
-7.85,-5.89,-1.45,-5.60,-5.60,-5.60
-7.84,-5.69,-1.41,-6.79,-6.79,-6.79
-7.86,-5.50,-1.41,-7.07,-7.14,-7.14
-7.48,-5.43,-1.53,-7.21,-7.21,-7.07
-7.12,-5.49,-1.57,-6.30,-6.30,-6.30
-7.20,-5.49,-1.57,-5.11,-4.62,-4.62
-7.25,-5.41,-1.60,-2.38,-2.38,-2.38
-7.08,-5.38,-1.69,-0.91,-0.56,-0.56
-7.27,-5.32,-1.79,0.70,0.70,0.91
-7.49,-5.24,-1.84,2.24,2.24,2.24
-7.69,-5.15,-1.85,3.01,3.01,3.01
-7.95,-4.97,-1.84,3.22,3.01,3.01
-8.16,-4.84,-1.88,2.31,2.31,1.89
-8.37,-4.75,-1.94,0.49,0.49,-0.21
-8.94,-4.80,-2.11,-5.04,-5.04,-5.04
-8.91,-4.87,-2.26,-8.68,-8.68,-8.75
-8.87,-4.88,-2.36,-9.52,-9.87,-10.08
-8.88,-4.91,-2.50,-10.99,-11.06,-11.06
-8.75,-4.94,-2.58,-12.18,-12.18,-12.25
-8.62,-4.79,-2.54,-12.25,-12.25,-12.25
-8.44,-4.56,-2.55,-12.11,-12.11,-12.04
-8.19,-4.50,-2.58,-12.04,-12.04,-12.04
-8.03,-4.39,-2.62,-11.55,-11.55,-11.55
-8.17,-4.21,-2.51,-10.22,-10.22,-10.22
-8.14,-4.02,-2.47,-9.38,-9.38,-9.38
-8.06,-3.89,-2.47,-9.17,-9.24,-9.24
-8.02,-3.85,-2.55,-9.24,-9.38,-9.31
-7.97,-3.86,-2.62,-9.31,-9.38,-9.24
-8.10,-3.85,-2.67,-9.17,-9.17,-9.31
-8.22,-3.87,-2.76,-9.38,-9.45,-9.45
-8.37,-3.93,-2.88,-10.08,-10.08,-10.08
-8.56,-3.98,-2.93,-10.71,-10.85,-10.99
-8.87,-4.02,-2.99,-11.27,-11.27,-11.41
-9.09,-4.08,-2.98,-11.76,-11.76,-11.83
-9.20,-4.10,-3.05,-12.18,-12.18,-12.39
-9.20,-4.12,-3.11,-12.46,-12.39,-12.53
-9.23,-4.04,-3.08,-12.74,-12.81,-12.88
-9.08,-3.99,-3.03,-12.88,-12.88,-12.88
-8.99,-3.95,-3.01,-12.88,-12.88,-12.88
-8.85,-3.81,-2.99,-13.02,-13.02,-13.02
-8.74,-3.51,-3.01,-13.86,-13.86,-13.86
-8.59,-3.28,-2.90,-16.73,-16.73,-16.73
-8.33,-3.04,-2.87,-19.25,-19.25,-19.25
-8.09,-2.95,-2.82,-22.68,-23.03,-23.03
-7.99,-2.93,-2.82,-25.06,-25.06,-25.27
-7.90,-2.98,-2.88,-27.09,-27.09,-27.09
-7.65,-3.05,-3.00,-28.42,-28.42,-28.42
-7.53,-3.28,-3.03,-28.84,-29.05,-29.05
-7.54,-3.43,-3.15,-28.98,-28.98,-29.05
-7.66,-3.60,-3.31,-28.91,-28.91,-28.84
-8.47,-3.88,-3.51,-27.16,-27.09,-27.09
-8.66,-3.98,-3.68,-26.32,-26.25,-26.25
-8.86,-4.07,-3.89,-25.34,-25.34,-25.34
-9.01,-4.08,-3.94,-24.64,-24.50,-24.36
-8.99,-4.05,-4.02,-23.59,-23.38,-23.24
-8.74,-3.97,-4.06,-22.33,-22.12,-22.12
-8.36,-3.91,-4.14,-21.00,-21.00,-20.30
-7.93,-3.77,-4.22,-18.83,-18.83,-18.83
-7.59,-3.69,-4.22,-16.80,-16.80,-16.80
-7.16,-3.65,-4.25,-15.40,-14.98,-14.98
-6.58,-3.69,-4.30,-13.23,-13.23,-12.67
-5.69,-3.97,-4.30,-10.29,-9.87,-9.87
-5.28,-4.25,-4.27,-5.18,-5.18,-4.62
-4.80,-4.33,-4.31,-1.82,-0.91,-0.49
-4.05,-4.40,-4.52,1.68,1.68,1.68
-3.68,-4.59,-4.64,1.68,1.54,1.54
-3.53,-4.78,-4.69,0.07,-1.19,-1.19
-3.41,-4.82,-4.76,-5.11,-5.11,-5.60
-2.62,-5.50,-5.24,-20.65,-21.49,-23.38
-2.20,-5.90,-5.39,-29.54,-29.54,-30.31
-1.72,-6.14,-5.59,-37.80,-37.80,-37.80
-1.19,-6.28,-5.67,-42.56,-43.96,-43.96
-0.82,-6.43,-5.75,-46.83,-46.83,-47.46
-0.27,-6.62,-5.78,-48.09,-48.09,-48.09
2.69,-6.72,-6.27,-45.29,-44.94,-44.94
2.87,-6.80,-6.11,-41.02,-41.02,-38.99
3.24,-6.59,-6.04,-35.84,-35.84,-34.37
4.61,-6.45,-6.31,-31.64,-31.22,-31.22
5.34,-6.29,-6.35,-27.30,-27.30,-26.74
5.53,-6.15,-6.26,-22.05,-22.05,-21.28
6.22,-5.92,-6.35,-16.73,-16.73,-16.73
7.18,-5.64,-6.36,-15.61,-15.61,-15.61
7.54,-5.46,-6.24,-14.91,-14.56,-14.56
8.11,-5.39,-6.09,-12.74,-12.25,-12.25
8.36,-5.27,-5.65,-7.91,-7.91,-7.28
8.51,-5.05,-5.28,-4.76,-4.41,-4.41
8.74,-4.81,-4.98,-1.68,-1.40,-1.40
8.83,-4.75,-4.53,1.19,1.19,1.75
8.21,-4.50,-3.68,5.81,5.81,6.37
8.31,-4.22,-3.12,10.01,10.01,10.29
8.98,-3.92,-2.71,11.55,11.55,11.62
9.54,-3.56,-2.38,10.78,10.78,10.57
9.55,-3.02,-1.73,8.68,8.68,8.33
9.72,-2.51,-1.10,5.60,5.60,5.11
10.30,-1.75,-0.56,1.12,1.12,0.35
11.27,-0.99,-0.16,-6.44,-6.44,-7.56
12.84,-0.15,0.11,-16.80,-16.80,-18.20
14.62,0.51,0.08,-31.71,-31.71,-31.71
16.15,0.93,-0.08,-43.47,-43.47,-43.47
17.02,0.95,-0.45,-55.02,-55.02,-55.02
16.11,0.57,-0.62,-63.77,-66.78,-66.78
13.51,0.33,-0.33,-77.84,-79.52,-79.52
11.81,0.21,0.40,-90.86,-92.40,-92.40
9.83,0.13,1.92,-103.11,-103.11,-104.09
8.59,-1.20,2.94,-107.80,-107.80,-108.01
7.23,-0.42,3.19,-107.66,-107.66,-107.66
6.47,-0.78,3.23,-103.11,-102.27,-102.27
6.40,-0.90,3.16,-96.60,-95.69,-95.69
6.60,-0.96,2.88,-89.95,-88.90,-88.90
7.14,-0.89,2.56,-79.24,-79.24,-78.05
7.84,-0.66,2.32,-69.65,-69.65,-68.32
8.40,-0.42,2.16,-61.95,-59.22,-58.03
9.41,0.27,1.71,-41.79,-41.79,-38.78
9.86,0.49,1.55,-34.30,-34.30,-31.64
10.18,0.55,1.46,-27.44,-27.44,-25.06
10.66,0.57,1.54,-21.07,-21.07,-20.30
11.75,0.39,1.64,-12.60,-12.60,-11.69
12.48,0.19,1.44,-6.23,-6.23,-5.39
12.20,0.06,1.18,-0.07,-0.07,-0.07
11.71,0.28,1.15,6.86,6.86,6.86
11.33,0.67,1.17,10.99,12.39,12.39
11.00,0.95,1.20,16.80,18.20,18.20
10.65,1.07,1.23,22.26,23.59,23.59
10.42,1.15,1.56,28.70,28.70,29.47
10.18,1.34,1.93,35.14,36.82,36.82
9.99,1.39,2.25,42.07,44.03,44.03
9.84,1.46,2.33,49.91,49.91,52.01
9.80,1.76,2.31,59.99,59.99,61.04
9.78,1.90,2.08,71.47,71.47,71.47
9.32,2.07,1.88,79.38,79.38,79.38
9.17,2.37,1.67,90.16,90.16,90.16
9.28,2.78,1.48,95.97,97.58,97.58
9.15,3.13,1.02,101.99,101.99,101.99
8.95,3.41,0.67,104.58,104.58,104.58
8.77,3.72,0.44,104.86,104.44,104.44
8.60,4.18,0.22,102.55,102.55,102.55
8.40,4.45,0.04,98.70,98.70,98.70
8.20,4.62,-0.05,94.78,93.24,93.24
8.05,4.78,-0.16,88.41,86.80,86.80
7.82,4.85,-0.29,80.22,80.22,80.22
7.70,4.81,-0.41,70.91,69.79,69.79
7.58,4.69,-0.43,61.81,60.62,60.62
7.39,4.60,-0.43,53.55,53.55,53.55
7.38,4.44,-0.26,33.60,33.60,33.60
7.29,4.06,-0.03,20.58,20.58,18.97
7.40,4.02,0.23,12.74,12.74,12.74
7.67,4.08,0.36,9.10,9.10,8.61
7.71,4.01,0.68,4.34,4.34,4.34
7.76,3.95,0.77,2.31,2.31,1.96
7.73,3.84,0.93,1.12,1.12,1.12
7.85,4.04,1.02,1.61,1.61,1.75
8.24,4.21,1.07,2.80,2.80,2.94
8.71,4.15,1.00,3.57,3.57,3.57
9.18,4.05,0.93,3.43,3.43,3.43
9.66,4.01,0.78,2.17,2.17,1.96
10.24,4.01,0.64,0.56,0.56,0.28
10.53,3.92,0.48,-2.31,-2.31,-2.31
10.60,3.83,0.38,-4.69,-4.69,-4.69
10.66,3.80,0.29,-7.21,-7.21,-7.21
10.60,3.77,0.33,-10.36,-10.36,-10.36
10.33,3.74,0.40,-12.88,-12.88,-12.88
10.05,3.69,0.45,-14.70,-15.12,-15.12
9.73,3.59,0.56,-16.87,-17.01,-17.01
9.43,3.50,0.71,-18.20,-18.20,-18.27
9.17,3.52,0.83,-18.48,-18.48,-18.41
9.00,3.53,1.05,-17.78,-17.78,-17.78
8.81,3.41,1.11,-16.80,-16.66,-16.66
8.75,3.36,1.20,-15.82,-15.40,-15.40
8.71,3.35,1.27,-14.07,-14.07,-14.07
8.82,3.33,1.25,-12.39,-12.11,-12.11
8.80,3.19,1.20,-10.85,-10.85,-10.57
8.93,3.18,1.12,-8.82,-8.82,-8.82
9.13,3.19,0.97,-6.72,-6.72,-6.72
9.34,3.17,0.86,-5.67,-5.67,-5.46
9.56,3.16,0.78,-4.13,-4.13,-4.13
10.00,3.20,0.67,-5.32,-5.32,-5.32
10.06,3.31,0.74,-6.58,-6.58,-6.86
10.05,3.43,0.82,-8.68,-8.68,-8.68
9.89,3.45,0.85,-10.57,-10.57,-10.57
9.56,3.39,0.93,-11.97,-11.97,-12.04
9.33,3.41,1.05,-13.44,-13.44,-13.44
9.19,3.36,1.14,-13.93,-13.93,-13.93
9.02,3.31,1.21,-13.44,-13.09,-13.09
8.82,3.19,1.37,-9.45,-9.45,-9.03
8.73,3.17,1.45,-6.09,-6.09,-6.09
8.76,3.16,1.47,-3.15,-3.15,-3.15
8.69,3.11,1.49,-0.42,-0.42,-0.42
9.14,3.35,1.45,6.65,6.65,6.65
9.44,3.41,1.43,6.86,6.86,6.86
9.60,3.41,1.29,6.02,6.02,5.88
9.69,3.42,1.20,4.62,4.62,4.41
9.83,3.42,1.19,3.43,2.94,2.73
9.79,3.44,1.16,1.75,1.75,1.12
9.67,3.39,1.11,-0.42,-0.42,-0.77
9.61,3.41,1.14,-1.96,-1.96,-2.17
9.54,3.38,1.16,-3.01,-3.22,-3.22
9.40,3.31,1.18,-3.99,-4.13,-4.13
9.35,3.25,1.19,-4.34,-4.34,-4.34
9.23,3.20,0.01,-3.78,-3.78,-3.78
9.14,3.13,1.26,-2.73,-2.73,-2.73
9.05,3.09,1.25,-0.70,-0.42,-0.42
9.08,3.08,1.29,1.54,1.89,1.89
8.99,3.07,1.31,4.48,5.32,5.67
9.10,3.07,1.31,11.90,11.90,12.46
9.26,3.09,1.29,15.19,15.96,15.96
9.49,3.16,1.29,18.41,18.41,18.76
9.58,3.19,1.32,20.79,20.79,21.07
9.63,3.22,1.30,22.68,22.68,22.68
9.78,3.20,1.34,23.31,23.31,23.31
9.87,3.22,1.30,23.80,23.80,23.94
9.73,3.20,1.23,23.87,23.87,23.66
9.54,3.16,1.23,23.38,23.38,23.24
9.37,3.15,1.20,22.82,22.82,22.54
9.13,3.08,1.19,22.05,22.05,22.05
8.88,3.02,1.19,21.00,21.00,21.00
8.70,3.05,1.23,20.30,20.30,20.09
8.67,3.09,1.27,19.11,19.11,19.11
8.65,3.10,1.27,17.71,17.71,17.71
8.72,3.23,1.28,16.52,16.52,16.38
8.90,3.33,1.33,15.26,15.26,15.26
9.17,3.40,1.42,13.37,13.37,13.37
9.56,3.44,1.44,11.13,10.85,10.85
9.75,3.35,1.43,8.68,8.68,8.68
9.87,3.15,1.40,4.90,4.90,4.90
10.00,2.96,1.43,2.24,2.24,2.24
10.07,2.76,1.48,0.70,0.21,0.21
9.79,2.65,1.64,-0.98,-0.98,-1.33
9.44,2.47,1.91,-1.47,-1.47,-1.47
9.29,2.33,2.01,-0.49,-0.49,-0.49
8.83,2.04,2.09,2.03,2.03,2.03
8.63,1.88,2.22,3.50,3.50,3.50
8.65,1.72,2.40,5.32,5.32,5.32
9.13,1.35,2.49,6.72,6.72,6.72
9.71,1.28,2.45,7.07,7.07,7.14
10.28,1.16,2.33,7.84,7.84,7.98
10.43,1.00,2.13,9.03,9.03,9.03
10.29,0.80,2.06,10.36,10.36,10.36
9.84,0.65,1.98,12.53,12.53,12.53
9.26,0.58,1.97,13.93,13.93,14.49
8.68,0.62,2.02,15.61,15.61,15.61
8.30,0.67,2.44,8.26,8.26,8.26
7.92,0.72,2.62,-8.12,-15.05,-15.05
7.78,0.58,2.92,-43.05,-43.05,-43.05
7.91,0.24,2.81,-77.56,-80.57,-80.57
9.84,0.24,1.83,-98.84,-97.44,-96.67
10.29,0.25,1.65,-91.14,-91.14,-90.16
10.43,0.17,1.67,-80.85,-80.85,-80.85
10.53,0.18,1.78,-73.22,-73.22,-73.22
10.70,0.23,1.98,-62.93,-61.81,-61.81
10.95,0.22,2.05,-53.13,-53.13,-53.13
11.13,0.10,2.13,-40.74,-39.20,-39.20
11.11,-0.14,2.15,-29.47,-29.47,-29.47
10.74,-0.34,2.21,-11.76,-11.76,-11.76
10.42,-0.30,2.32,-0.56,17.36,1.33
10.04,-0.16,2.30,17.57,17.57,35.49
9.49,-0.10,2.35,27.23,30.10,30.10
9.08,0.09,2.51,40.67,40.67,40.67
8.72,0.38,2.42,48.44,48.44,48.44
8.35,0.62,2.21,53.90,53.90,53.90
7.93,0.77,1.85,56.84,56.84,56.84
7.59,1.12,0.99,55.30,55.30,55.30
7.76,1.95,-0.05,33.46,33.46,33.46
8.87,2.86,-0.48,-0.63,-0.63,-0.63
9.84,3.15,-0.30,-24.78,-31.43,-31.43
10.78,2.79,0.45,-45.50,-45.50,-48.44
11.48,2.09,1.33,-54.46,-54.46,-54.46
11.96,1.20,1.62,-55.65,-55.58,-55.58
11.98,0.20,1.71,-54.60,-54.11,-53.41
11.83,-0.44,1.51,-50.61,-49.91,-48.30
11.61,-0.55,1.19,-43.33,-42.21,-42.21
11.22,-0.49,0.97,-29.05,-27.23,-27.23
10.64,-0.46,0.87,-14.35,-12.25,-12.25
10.03,-0.48,0.72,1.89,3.92,3.92
9.30,-0.54,0.54,15.89,17.92,17.92
8.77,-0.46,0.35,31.01,31.01,32.83
8.23,-0.33,0.15,48.09,48.09,49.77
7.59,-0.21,0.07,58.73,58.73,58.73
7.02,-0.07,0.00,69.58,70.63,70.63
6.49,0.24,-0.09,80.29,80.64,81.41
6.81,0.61,0.15,83.09,83.23,83.23
7.45,0.97,0.48,83.02,82.95,82.95
8.56,1.45,0.71,81.69,80.43,80.43
10.05,1.94,1.03,77.77,77.07,77.07
11.77,2.67,1.21,68.95,67.76,67.76
13.52,2.88,0.96,58.94,57.33,57.33
14.59,2.59,0.60,45.92,45.92,45.92
14.59,2.10,0.34,28.49,26.39,26.39
13.47,1.76,0.46,13.44,11.20,11.20
12.08,1.54,0.66,-5.39,-10.01,-12.32
10.21,1.18,0.92,-22.75,-22.75,-28.35
8.61,0.75,1.42,-38.71,-38.71,-39.76
7.84,0.48,1.76,-46.06,-47.11,-47.11
7.37,0.29,1.91,-49.28,-49.28,-49.42
7.05,0.10,1.97,-49.00,-49.00,-48.58
7.04,-0.11,1.86,-46.55,-46.55,-46.55
7.27,-0.40,1.71,-41.16,-41.16,-41.16
7.87,-0.54,1.66,-36.05,-35.49,-35.49
8.76,-0.67,1.63,-30.45,-30.45,-30.45
9.58,-0.71,1.52,-29.68,-29.68,-29.68
10.40,-0.67,1.46,-36.12,-37.87,-37.87
11.13,-0.71,1.32,-57.26,-57.26,-57.26
11.71,-1.00,1.37,-73.50,-75.46,-75.46
11.74,-1.37,1.40,-86.59,-86.59,-88.13
11.61,-1.67,1.14,-94.85,-94.85,-94.85
11.39,-1.88,0.99,-93.66,-92.47,-92.47
10.98,-1.95,0.94,-86.17,-85.12,-85.12
10.64,-1.85,0.83,-73.08,-73.08,-71.61
10.18,-1.54,0.78,-62.30,-62.30,-60.76
9.77,-1.17,0.79,-45.78,-45.78,-45.78
9.46,-1.00,0.89,-35.63,-33.95,-33.95
9.39,-0.89,1.07,-22.05,-22.05,-20.44
9.48,-0.88,1.24,-8.89,-7.21,-7.21
9.62,-0.99,1.41,5.46,5.46,5.46
9.86,-1.12,1.55,17.78,17.78,17.78
9.90,-1.16,1.74,31.01,32.55,32.55
9.85,-1.09,1.79,42.63,44.10,44.10
9.77,-1.04,1.82,53.76,55.02,55.02
9.58,-0.93,1.82,63.63,63.63,63.63
9.47,-0.82,1.81,73.99,73.99,73.99
9.35,-0.65,1.70,78.26,78.26,78.26
9.23,-0.28,1.45,76.86,76.09,76.09
9.27,0.28,1.23,61.74,59.50,59.50
9.35,0.49,1.38,42.28,42.28,39.76
9.53,0.50,1.53,22.05,22.05,22.05
9.69,0.32,1.79,3.64,2.24,2.24
9.80,0.06,1.88,-3.85,-6.02,-6.02
10.01,-0.21,2.00,-7.91,-7.98,-7.91
10.17,-0.38,1.99,-6.37,-6.37,-5.95
10.14,-0.46,1.96,-0.91,-0.91,-0.91
10.18,-0.42,1.95,3.85,3.85,3.85
10.17,-0.43,2.00,11.20,11.20,11.20
10.03,-0.37,2.06,16.31,16.31,16.31
9.95,-0.31,2.11,22.96,23.66,23.66
9.74,-0.31,2.12,28.42,29.12,29.12
9.54,-0.27,2.17,33.11,33.60,33.60
9.36,-0.24,2.23,36.47,36.75,36.75
9.17,-0.15,2.30,37.52,37.52,37.52
9.10,0.02,3.67,34.86,34.86,34.86
9.18,0.28,2.62,10.99,10.99,10.08
9.34,0.35,2.58,5.81,4.06,3.22
9.51,0.36,2.47,0.21,-0.91,-1.33
9.56,0.37,2.39,-3.36,-3.99,-4.27
9.62,0.36,2.30,-5.32,-5.32,-5.67
9.77,0.44,2.13,-5.25,-5.25,-5.25
9.82,0.44,2.06,-4.55,-4.55,-4.55
9.82,0.45,2.08,-3.78,-3.78,-3.78
9.88,0.49,2.15,-2.73,-2.73,-2.73
9.98,0.50,2.25,-1.47,-1.19,-1.19
9.97,0.56,2.37,-0.56,-0.42,-0.42
9.89,0.56,2.51,-0.35,-0.35,-0.35
9.77,0.58,2.66,-2.38,-2.38,-2.38
9.58,0.57,2.77,-5.46,-5.81,-5.81
9.35,0.54,2.87,-9.94,-10.50,-10.50
9.14,0.50,2.95,-13.58,-15.40,-15.40
8.95,0.42,2.97,-18.55,-18.97,-18.97
8.89,0.34,2.99,-21.07,-21.42,-21.56
8.97,0.24,2.84,-18.83,-18.48,-18.48
9.11,0.21,2.74,-16.38,-14.98,-14.98
10.10,0.03,2.56,1.33,2.87,2.87
10.19,-0.05,2.55,5.25,5.81,5.81
10.18,-0.11,2.54,8.75,9.24,9.24
10.00,-0.24,2.54,14.21,14.42,14.42
9.92,-0.24,2.54,15.40,15.47,15.47
9.75,-0.22,2.59,14.98,14.91,14.91
9.64,-0.21,2.63,13.93,13.93,13.93
9.54,-0.17,2.64,12.60,12.60,12.60
9.46,-0.14,2.62,11.27,11.27,11.27
9.37,-0.11,2.62,10.85,10.85,10.85
9.32,-0.11,2.61,10.99,10.99,10.99
9.29,-0.09,2.61,11.34,11.34,11.41
9.32,-0.07,2.62,12.18,12.18,12.18
9.30,-0.05,2.60,12.53,12.60,12.60
9.37,0.03,2.62,12.95,12.95,13.02
9.38,0.03,2.58,12.74,12.74,12.46
9.41,0.03,2.56,11.41,11.41,11.41
9.40,0.02,2.60,9.87,9.87,9.87
9.48,-0.01,2.66,8.26,8.26,8.26
9.52,-0.10,2.70,6.37,6.09,6.09
9.53,-0.15,2.70,4.97,4.97,4.90
9.57,-0.20,2.73,3.64,3.15,3.15
9.54,-0.24,2.75,2.17,2.17,1.89
9.53,-0.22,2.71,0.91,0.91,0.91
9.49,-0.22,2.67,-0.56,-0.56,-0.56
9.46,-0.17,2.65,-1.54,-1.96,-1.96
9.39,-0.11,2.61,-3.01,-3.01,-3.36
9.36,-0.07,2.63,-4.69,-4.69,-4.69
9.32,-0.06,2.59,-6.02,-6.23,-6.23
9.26,-0.07,2.60,-7.00,-7.14,-7.14
9.28,-0.05,2.61,-7.84,-7.84,-7.91
9.32,-0.07,2.62,-8.40,-8.40,-8.40
9.49,-0.09,2.65,-8.75,-8.75,-8.75
9.61,-0.16,2.63,-8.82,-8.82,-8.82
9.75,-0.24,2.65,-8.54,-8.54,-8.54
9.88,-0.29,2.63,-7.91,-7.77,-7.77
9.94,-0.33,2.61,-7.21,-6.93,-6.93
10.00,-0.38,2.61,-6.30,-6.16,-6.16
9.96,-0.45,2.56,-5.18,-5.18,-5.18
9.90,-0.49,2.57,-4.34,-4.34,-4.34
9.84,-0.45,2.57,-4.13,-4.20,-4.20
9.73,-0.41,2.57,-4.41,-4.34,-4.34
9.62,-0.37,2.54,-4.76,-4.97,-4.97
9.52,-0.30,2.53,-5.60,-5.95,-5.95
9.40,-0.22,2.49,-6.58,-7.00,-7.00
9.28,-0.16,2.45,-7.70,-7.84,-8.26
9.22,-0.12,2.46,-9.10,-9.17,-9.17
9.16,-0.07,2.45,-10.92,-11.20,-11.20
9.18,-0.02,2.39,-13.23,-13.58,-13.58
9.26,0.11,2.34,-15.54,-16.80,-16.80
9.29,0.18,2.25,-19.25,-20.79,-20.79
9.35,0.22,2.23,-23.17,-23.59,-24.57
9.40,0.14,2.21,-27.51,-27.51,-27.93
9.50,0.04,2.30,-29.82,-29.82,-29.82
9.57,-0.09,2.35,-30.17,-30.03,-30.03
9.63,-0.23,2.46,-28.98,-28.98,-28.28
9.76,-0.35,2.57,-24.99,-24.99,-24.99
9.84,-0.43,2.61,-20.30,-20.30,-20.30
9.92,-0.53,2.66,-16.52,-15.19,-15.19
9.96,-0.58,2.76,-9.94,-9.94,-9.94
9.97,-0.55,2.80,-5.81,-5.81,-5.81
9.95,-0.48,2.80,-3.50,-2.80,-2.80
9.87,-0.38,2.79,-1.61,-1.61,-1.40
9.76,-0.25,2.69,-1.54,-1.61,-1.61
9.72,-0.10,2.56,-4.06,-4.06,-4.41
9.71,-0.01,2.48,-7.07,-7.07,-7.56
9.68,0.05,2.40,-11.27,-11.27,-11.27
9.63,0.08,2.31,-16.03,-16.03,-16.03
9.62,0.06,2.29,-17.85,-18.20,-18.20
9.62,0.04,2.31,-18.69,-18.69,-18.76
9.62,-0.07,2.31,-17.43,-17.43,-17.43
9.66,-0.16,2.35,-15.33,-14.28,-14.28
9.69,-0.20,2.38,-12.25,-11.90,-10.99
9.68,-0.26,2.43,-7.98,-7.49,-7.49
9.64,-0.27,2.46,-3.57,-3.57,-3.57
9.58,-0.25,2.49,-0.84,-0.84,-0.42
9.60,-0.17,2.48,1.47,1.47,1.82
9.59,-0.09,2.52,2.59,2.59,2.59
9.58,0.01,2.48,1.61,1.61,1.61
9.61,0.20,2.37,-2.94,-2.94,-2.94
9.61,0.34,2.17,-9.45,-9.45,-9.45
9.52,0.48,2.03,-15.40,-17.50,-17.50
9.38,0.53,1.98,-23.17,-24.92,-24.92
9.33,0.38,2.11,-29.47,-29.47,-30.66
9.29,0.11,2.28,-33.25,-33.39,-33.39
9.27,-0.13,2.42,-33.46,-33.46,-33.25
9.31,-0.22,2.50,-31.36,-31.36,-31.36
9.36,-0.25,2.58,-26.88,-26.25,-26.25
9.51,-0.26,2.65,-21.70,-21.70,-21.70
9.64,-0.36,2.66,-15.75,-15.75,-15.75
9.72,-0.41,2.69,-7.84,-7.84,-7.84
9.82,-0.44,2.67,-2.94,-2.94,-1.47
9.86,-0.48,2.64,3.36,3.36,4.83
9.82,-0.54,2.60,10.22,10.92,10.92
9.73,-0.51,2.53,17.29,17.29,17.99
9.66,-0.46,2.55,22.05,22.05,22.54
9.54,-0.41,2.59,25.55,25.55,25.55
9.49,-0.39,2.61,27.44,27.44,27.44
9.49,-0.33,2.72,27.93,27.93,27.93
9.57,-0.22,2.79,27.09,26.95,26.95
9.58,-0.17,2.84,24.36,24.36,24.08
9.66,-0.10,2.83,21.84,21.84,21.35
9.65,-0.01,2.75,18.27,18.27,18.27
9.64,0.07,2.68,15.47,15.47,15.47
9.61,0.20,2.59,12.25,12.25,12.25
9.60,0.27,2.55,10.43,10.43,10.43
9.57,0.35,2.46,5.25,5.04,5.04
9.46,0.37,2.44,3.29,3.08,3.08
9.44,0.34,2.49,1.89,1.75,1.75
9.39,0.35,2.59,0.63,0.63,0.63
9.41,0.28,2.69,-0.49,-0.56,-0.56
9.43,0.22,2.75,-1.54,-1.61,-1.61
9.35,0.18,2.81,-2.52,-2.66,-2.66
9.37,0.10,2.87,-3.36,-3.57,-3.57
9.39,0.00,2.91,-4.62,-4.62,-4.76
9.42,-0.06,2.92,-5.46,-5.46,-5.46
9.46,-0.16,2.87,-5.95,-5.95,-5.95
9.47,-0.17,2.82,-5.88,-5.88,-5.88
9.49,-0.18,2.80,-5.32,-5.18,-4.90
9.61,-0.15,2.76,-4.20,-4.13,-4.13
9.66,-0.17,2.71,-2.45,-2.24,-2.24
9.68,-0.17,2.69,-0.77,-0.77,-0.77
9.71,-0.15,2.68,1.05,1.05,1.26
9.64,-0.16,2.67,2.66,2.66,2.52
9.56,-0.17,2.63,4.27,4.34,4.34
9.50,-0.20,2.63,5.88,5.88,6.09
9.48,-0.20,2.66,6.86,6.86,6.86
9.51,-0.29,2.70,10.08,10.08,10.08
9.51,-0.29,2.70,11.34,11.34,11.34
9.47,-0.27,2.69,12.95,12.95,12.95
9.49,-0.23,2.71,14.07,14.07,14.07
9.43,-0.22,2.72,14.91,14.91,14.91
9.43,-0.19,2.73,15.68,15.75,15.75
9.42,-0.18,2.76,16.17,16.17,16.17
9.42,-0.17,2.83,16.59,16.59,16.80
9.51,-0.16,2.86,16.73,16.87,16.87
9.56,-0.14,2.85,16.24,16.17,16.17
9.54,-0.10,2.86,15.54,15.19,15.19
9.55,-0.01,2.95,14.00,13.86,13.86
9.61,0.01,2.99,12.53,12.32,12.32
9.60,0.01,2.99,11.20,10.57,10.57
9.62,0.05,3.02,9.45,8.75,8.75
9.71,0.10,3.07,7.07,7.07,7.07
9.71,0.06,3.07,4.83,4.48,4.48
9.65,0.09,3.06,3.43,3.22,2.59
9.52,0.11,3.06,1.26,1.05,1.05
9.44,0.13,3.05,-1.26,-1.54,-1.54
9.44,0.15,3.07,-3.43,-3.64,-3.64
9.40,0.16,3.04,-5.74,-6.09,-6.09
9.27,0.11,2.99,-9.87,-9.87,-9.87
9.20,0.11,2.98,-12.39,-12.39,-12.39
9.22,0.04,2.95,-13.93,-13.93,-13.93
9.16,0.01,2.93,-14.70,-14.91,-14.91
9.18,-0.06,2.88,-15.68,-15.68,-15.68
9.24,-0.10,2.83,-16.38,-16.38,-16.38
9.27,-0.18,2.77,-16.38,-16.38,-16.38
9.31,-0.25,2.75,-15.40,-15.40,-15.40
9.42,-0.33,2.78,-14.28,-13.79,-13.79
9.54,-0.68,2.88,-3.71,-3.71,-3.71
9.51,-0.78,2.90,0.91,0.91,0.91
9.52,-0.80,2.94,6.72,7.35,7.35
9.55,-0.83,2.97,10.99,11.69,11.69
9.57,-0.84,2.96,16.87,16.87,17.50
9.49,-0.80,2.96,20.16,21.14,21.63
9.52,-0.73,2.95,24.64,24.64,24.64
9.48,-0.64,2.98,27.51,27.79,27.79
9.45,-0.55,2.97,28.91,29.05,29.05
9.40,-0.42,2.97,29.26,29.26,29.40
9.38,-0.32,2.95,28.91,28.70,28.49
9.32,-0.23,2.92,27.72,27.23,27.02
9.34,-0.16,2.94,25.27,25.27,25.06
9.36,-0.11,2.93,22.96,22.96,22.68
9.33,-0.07,2.90,21.00,20.16,20.16
9.40,-0.00,2.92,17.50,17.50,17.50
9.46,-0.01,2.90,12.39,11.83,11.83
9.49,-0.02,2.88,9.66,9.45,9.45
9.47,-0.04,2.90,6.44,6.44,6.23
9.51,-0.05,2.90,4.27,3.50,3.15
9.58,-0.07,2.88,0.77,0.42,0.42
9.62,-0.09,2.82,-3.78,-3.78,-4.20
9.67,-0.11,2.86,-6.51,-7.49,-8.05
9.66,-0.17,2.81,-10.22,-10.22,-11.62
9.66,-0.23,2.83,-13.58,-13.58,-13.86
9.65,-0.31,2.80,-16.17,-16.59,-16.59
9.67,-0.33,2.81,-17.85,-17.85,-18.06
9.66,-0.41,2.80,-19.11,-19.11,-19.18
9.63,-0.47,2.74,-19.32,-19.32,-19.32
9.57,-0.52,2.75,-19.18,-19.18,-19.18
9.58,-0.55,2.75,-18.34,-18.34,-18.34
9.55,-0.59,2.73,-17.71,-17.57,-17.57
9.50,-0.59,2.67,-16.66,-16.66,-16.38
9.49,-0.63,2.67,-15.12,-15.12,-14.98
9.49,-0.60,2.66,-13.93,-13.93,-13.93
9.48,-0.62,2.67,-12.67,-12.67,-12.39
9.46,-0.64,2.68,-11.20,-11.20,-10.99
9.43,-0.66,2.69,-9.66,-9.45,-9.45
9.43,-0.69,2.73,-7.07,-7.07,-6.72
9.41,-0.73,2.78,-4.76,-4.76,-4.41
9.42,-0.76,2.85,-0.84,-0.84,-0.84
9.45,-0.76,2.88,2.24,2.24,2.24
9.48,-0.79,2.91,6.86,6.86,6.86
9.46,-0.74,2.91,9.87,9.87,10.29
9.48,-0.62,2.93,16.17,16.17,16.17
9.45,-0.56,2.90,18.20,18.20,18.20
9.45,-0.48,2.90,19.32,19.32,19.32
9.47,-0.38,2.90,19.11,19.11,19.11
9.45,-0.28,2.87,17.71,17.50,17.50
9.45,-0.20,2.84,15.82,15.54,15.54
9.44,-0.12,2.80,12.53,12.25,12.25
9.46,-0.06,2.79,9.45,9.03,9.03
9.47,-0.03,2.78,4.83,4.83,4.34
9.50,-0.01,2.76,2.03,1.61,1.19
9.49,-0.06,2.73,-2.24,-2.24,-2.73
9.51,-0.08,2.76,-5.04,-5.04,-5.04
9.47,-0.14,2.77,-7.70,-7.91,-7.91
9.49,-0.28,2.79,-11.62,-11.76,-11.90
9.55,-0.34,2.85,-12.32,-12.32,-12.39
9.58,-0.42,2.84,-12.46,-12.46,-12.46
9.62,-0.47,2.87,-12.18,-12.18,-12.18
9.60,-0.56,2.86,-11.55,-11.55,-11.55
9.56,-0.58,2.85,-10.57,-10.57,-10.57
9.46,-0.60,2.87,-8.05,-7.84,-7.84
9.45,-0.60,2.91,-5.53,-5.32,-5.32
9.45,-0.57,2.88,-3.71,-3.71,-3.64
9.50,-0.52,2.88,-0.91,-0.91,-0.91
9.49,-0.45,2.85,-0.07,0.21,0.21
9.47,-0.42,2.83,0.42,0.42,0.42
9.46,-0.39,2.82,0.21,0.21,0.21
9.49,-0.34,2.85,-0.70,-0.70,-0.70
9.50,-0.34,2.84,-1.61,-1.61,-1.61
9.48,-0.33,2.83,-2.66,-2.66,-2.80
9.48,-0.33,2.87,-3.92,-3.92,-3.92
9.47,-0.35,2.88,-4.48,-4.62,-4.62
9.47,-0.35,2.92,-5.04,-5.04,-5.11
9.46,-0.32,2.94,-5.53,-5.53,-5.81
9.49,-0.30,2.96,-7.42,-7.42,-7.63
9.45,-0.27,2.96,-8.40,-8.40,-8.40
9.44,-0.26,2.96,-10.57,-10.57,-10.57
9.44,-0.24,2.92,-12.25,-12.88,-12.88
9.46,-0.21,2.89,-14.98,-14.98,-15.75
9.49,-0.16,2.72,-22.40,-22.40,-22.40
9.52,-0.16,2.69,-25.06,-25.06,-25.06
9.57,-0.21,2.64,-28.63,-28.63,-28.63
9.63,-0.27,2.60,-30.38,-31.01,-31.01
9.62,-0.34,2.57,-32.20,-32.20,-32.20
9.67,-0.41,2.58,-32.69,-32.69,-32.69
9.66,-0.50,2.60,-32.41,-32.20,-32.20
9.66,-0.57,2.60,-31.15,-31.15,-30.87
9.63,-0.69,2.68,-26.88,-26.25,-26.25
9.56,-0.78,2.70,-23.66,-23.66,-23.31
9.50,-0.85,2.70,-19.88,-19.88,-19.88
9.40,-0.87,2.70,-16.38,-16.38,-16.38
9.38,-0.86,2.66,-11.97,-11.97,-11.97
9.37,-0.87,2.68,-9.24,-8.89,-8.89
9.41,-0.78,2.65,0.63,0.63,0.63
9.40,-0.73,2.66,2.17,2.66,2.66
9.43,-0.70,2.63,3.92,3.92,4.34
9.47,-0.66,2.64,5.53,5.53,5.81
9.52,-0.63,2.67,7.28,7.28,7.28
9.58,-0.63,2.67,8.40,8.75,8.75
9.59,-0.64,2.69,10.15,10.15,10.36
9.58,-0.65,2.75,13.37,13.86,13.86
9.56,-0.62,2.74,15.19,15.19,15.19
9.55,-0.61,2.75,16.10,16.38,16.38
9.51,-0.56,2.74,16.80,16.94,16.94
9.48,-0.52,2.78,17.22,17.22,17.15
9.46,-0.43,2.79,15.33,15.33,14.91
9.42,-0.42,2.78,11.90,11.83,11.83
9.48,-0.37,2.78,10.50,10.50,10.36
9.46,-0.40,2.77,9.80,9.45,9.45
9.48,-0.41,2.78,8.96,8.75,8.75
9.54,-0.41,2.81,8.26,8.26,8.12
9.53,-0.45,2.77,7.56,7.56,7.56
9.53,-0.46,2.77,7.21,7.21,7.21
9.55,-0.48,2.75,6.72,6.72,6.72
9.53,-0.51,2.72,6.23,6.23,6.23
9.54,-0.52,2.73,6.02,5.88,5.88
9.51,-0.54,2.76,6.09,6.09,6.16
9.51,-0.59,2.77,6.58,6.72,6.79
9.51,-0.65,2.82,7.42,7.98,7.98
9.50,-0.66,2.83,8.89,8.89,9.31
9.51,-0.68,2.88,10.92,11.13,11.13
9.50,-0.71,2.90,13.30,13.30,13.44
9.48,-0.72,2.91,14.84,14.84,15.05
9.46,-0.70,2.90,16.10,16.10,16.38
9.41,-0.67,2.90,17.50,17.50,17.50
9.42,-0.64,2.95,18.13,18.27,18.27
9.43,-0.58,2.96,18.34,18.48,18.48
9.46,-0.55,2.94,18.34,18.34,18.34
9.46,-0.52,2.91,18.06,18.06,17.85
9.43,-0.51,2.89,17.29,17.29,17.29
9.45,-0.45,2.89,16.87,16.59,16.59
9.47,-0.45,2.91,15.96,15.96,15.96
9.47,-0.44,2.89,14.84,14.77,14.77
9.49,-0.41,2.89,13.65,13.65,13.51
9.47,-0.41,2.89,12.60,12.60,12.53
9.46,-0.40,2.88,11.41,11.41,10.99
9.49,-0.41,2.91,10.01,10.01,10.01
9.52,-0.40,2.91,8.54,8.54,8.33
9.49,-0.41,2.94,7.07,7.07,6.72
9.47,-0.46,2.97,5.39,5.39,5.39
9.45,-0.45,2.97,3.99,3.92,3.92
9.47,-0.47,2.97,3.15,3.08,3.08
9.48,-0.49,3.00,2.10,2.10,2.10
9.47,-0.53,3.00,1.47,1.47,1.47
9.49,-0.52,2.96,0.84,0.84,0.84
9.50,-0.53,2.95,0.35,0.35,0.35
9.49,-0.52,2.91,0.07,0.07,0.07
9.44,-0.54,2.90,-0.49,-0.49,-0.49
9.43,-0.51,2.91,-0.84,-0.84,-0.84
9.38,-0.52,2.89,-1.26,-1.26,-1.26
9.38,-0.53,2.87,-1.75,-1.75,-1.75
9.40,-0.53,2.90,-1.96,-2.10,-2.10
9.39,-0.51,2.92,-2.17,-2.17,-2.24
9.42,-0.55,2.91,-2.38,-2.38,-2.17
9.42,-0.55,2.90,-2.31,-2.31,-2.31
9.47,-0.58,2.90,-2.31,-2.31,-2.31
9.48,-0.59,2.90,-2.17,-2.17,-2.17
9.48,-0.60,2.92,-2.10,-2.03,-2.03
9.46,-0.58,2.90,-1.89,-1.89,-1.89
9.43,-0.58,2.92,-1.68,-1.68,-1.68
9.46,-0.56,2.91,-1.75,-1.75,-1.82
9.41,-0.56,2.91,-1.96,-1.96,-1.96
9.44,-0.56,2.96,-1.96,-1.96,-1.96
9.45,-0.54,2.94,-2.24,-2.24,-2.24
9.46,-0.55,2.98,-2.52,-2.52,-2.52
9.48,-0.56,2.95,-2.66,-2.66,-2.66
9.51,-0.55,2.97,-2.87,-2.94,-2.94
9.56,-0.58,2.95,-2.94,-2.94,-3.08
9.61,-0.58,2.97,-3.01,-3.01,-3.01
9.57,-0.57,2.96,-3.01,-3.01,-3.08
9.50,-0.56,2.95,-3.08,-2.94,-2.94
9.42,-0.53,2.95,-2.80,-2.80,-2.80
9.38,-0.53,2.99,-2.38,-2.38,-2.38
9.43,-0.60,3.03,-0.63,-0.63,-0.42
9.48,-0.62,3.04,0.91,0.91,0.91
9.57,-0.67,3.07,2.03,2.03,2.03
9.65,-0.72,3.12,3.71,3.71,3.71
9.53,-0.78,3.09,5.60,5.67,5.67
9.45,-0.73,3.04,6.23,6.37,6.37
9.32,-0.71,3.08,6.72,6.72,6.72
9.29,-0.66,3.08,7.00,7.07,7.07
9.29,-0.60,3.13,7.07,7.21,7.21
9.33,-0.62,3.12,7.07,7.14,7.14
9.34,-0.61,3.09,7.14,7.14,7.14
9.35,-0.61,3.12,7.21,7.21,7.21
9.33,-0.60,3.14,7.28,7.49,7.49
9.34,-0.61,3.23,7.84,7.77,7.77
9.37,-0.63,3.27,7.98,7.98,8.05
9.40,-0.65,3.30,8.05,7.98,7.98
9.42,-0.65,3.32,7.91,7.91,7.91
9.45,-0.67,3.41,7.56,7.56,7.56
9.43,-0.66,3.42,6.72,6.72,6.72
9.38,-0.67,3.43,6.09,6.02,6.02
9.34,-0.63,3.52,4.48,4.48,4.41
9.31,-0.62,3.50,3.36,2.80,2.80
9.23,-0.63,3.48,1.47,1.47,1.47
9.14,-0.65,3.44,-0.63,-0.91,-0.91
9.06,-0.63,3.41,-2.38,-2.73,-2.73
9.01,-0.64,3.36,-4.83,-4.83,-5.11
8.89,-0.61,3.37,-6.79,-6.79,-7.14
8.88,-0.54,3.41,-9.24,-9.66,-9.66
8.90,-0.47,3.40,-12.74,-12.74,-13.16
8.90,-0.42,3.41,-15.26,-15.26,-15.26
8.96,-0.39,3.47,-19.11,-19.11,-19.11
9.04,-0.33,3.53,-21.91,-21.91,-22.33
9.15,-0.27,3.56,-26.67,-26.67,-26.67
9.28,-0.20,3.56,-32.90,-33.60,-33.60
9.35,-0.17,3.54,-38.57,-39.34,-39.34
9.37,-0.12,3.40,-47.53,-47.53,-48.37
9.47,-0.17,3.26,-54.74,-54.74,-55.58
9.62,-0.23,3.13,-60.55,-60.55,-60.55
9.77,-0.36,2.93,-67.20,-67.83,-67.83
9.90,-0.46,2.84,-72.24,-72.80,-72.80
9.94,-0.57,2.74,-76.16,-76.44,-76.44
9.95,-0.67,2.67,-80.08,-80.08,-80.29
9.82,-0.71,2.69,-81.83,-82.39,-82.60
9.65,-0.72,2.73,-83.86,-83.86,-83.86
9.50,-0.79,2.73,-84.91,-84.98,-84.98
9.37,-0.83,2.73,-84.84,-84.84,-84.84
9.28,-0.87,2.68,-84.07,-83.93,-83.93
9.28,-0.89,2.65,-82.60,-82.32,-82.32
9.34,-0.98,2.65,-80.22,-79.59,-79.17
9.53,-1.13,2.67,-77.07,-77.07,-75.81
9.75,-1.29,2.63,-72.31,-72.31,-72.31
9.86,-1.37,2.58,-68.18,-68.18,-68.18
9.83,-1.46,2.45,-63.77,-63.77,-63.77
9.87,-1.43,2.42,-59.50,-59.50,-59.50
9.88,-1.39,2.39,-54.04,-54.04,-54.04
9.85,-1.37,2.40,-49.70,-49.70,-49.70
9.79,-1.35,2.40,-46.69,-46.69,-46.06
9.75,-1.35,2.46,-41.37,-41.37,-41.37
9.71,-1.38,2.45,-38.15,-37.10,-37.10
9.74,-1.43,2.44,-33.67,-32.55,-32.55
9.76,-1.46,2.45,-28.35,-28.35,-28.35
9.71,-1.45,2.37,-22.40,-22.40,-22.40
9.64,-1.43,2.38,-18.34,-18.34,-17.78
9.38,-1.37,2.57,-4.20,-4.20,-3.15
9.32,-1.32,2.64,0.35,0.70,0.70
9.22,-1.26,2.65,4.55,4.55,4.90
9.13,-1.23,2.64,6.93,7.49,7.77
9.06,-1.17,2.59,9.94,9.94,9.94
9.03,-1.13,2.51,11.62,11.62,11.62
9.05,-1.11,2.44,12.04,11.97,11.97
9.08,-1.01,2.32,10.92,10.92,10.71
9.16,-0.99,2.23,9.10,9.10,8.82
9.25,-1.03,2.15,6.86,6.86,6.86
9.34,-1.07,2.11,3.78,3.78,3.78
9.52,-1.16,2.13,2.45,2.10,2.10
9.80,-1.66,2.34,7.21,7.63,7.63
9.74,-1.72,2.40,11.76,12.39,12.39
9.71,-1.77,2.46,17.43,18.20,18.20
9.61,-1.76,2.49,22.82,22.82,22.82
9.34,-1.56,2.51,42.56,42.56,43.33
9.25,-1.45,2.51,47.60,47.60,48.37
9.20,-1.37,2.51,52.78,52.78,53.90
9.21,-1.22,2.51,56.98,56.98,57.75
9.20,-1.09,2.50,60.20,60.20,60.20
9.23,-0.95,2.51,63.21,63.21,63.21
9.33,-0.85,2.52,64.61,64.68,64.68
9.48,-0.74,2.55,65.80,65.80,65.80
9.60,-0.64,2.54,65.94,65.80,65.87
9.76,-0.56,2.56,65.66,65.66,65.66
9.88,-0.50,2.59,64.47,64.47,64.47
9.89,-0.45,2.56,63.21,63.21,63.21
9.87,-0.39,2.57,61.74,61.74,61.74
9.77,-0.37,2.57,60.55,60.34,60.34
9.66,-0.35,2.57,59.01,59.01,58.59
9.54,-0.34,2.57,57.68,57.68,57.40
9.47,-0.33,2.62,56.00,56.00,56.00
9.42,-0.34,2.64,52.36,52.22,52.22
9.47,-0.34,2.65,50.54,50.40,50.40
9.52,-0.35,2.65,48.02,48.02,47.74
9.62,-0.39,2.62,46.20,45.71,45.43
9.75,-0.41,2.64,43.54,43.26,43.26
9.83,-0.50,2.68,40.67,40.67,40.25
9.95,-0.60,2.68,38.36,38.36,38.08
9.93,-0.69,2.63,36.54,36.54,36.33
9.91,-0.74,2.57,34.02,34.02,34.02
9.85,-0.76,2.56,32.48,32.06,32.06
9.73,-0.78,2.54,30.52,30.31,30.31
9.67,-0.78,2.51,28.63,28.63,28.63
9.61,-0.80,2.51,27.30,27.30,27.16
9.57,-0.81,2.46,25.48,25.48,25.48
9.49,-0.82,2.46,24.43,24.43,24.36
9.53,-0.79,2.47,23.80,23.52,23.52
9.57,-0.79,2.49,23.10,23.10,22.96
9.61,-0.83,2.47,22.47,22.47,22.47
9.71,-0.87,2.49,21.98,21.98,21.98
9.75,-0.91,2.50,21.77,21.77,21.77
9.77,-0.94,2.49,21.63,21.56,21.56
9.73,-0.96,2.49,21.35,21.35,21.35
9.71,-0.94,2.49,21.21,21.21,21.21
9.69,-0.92,2.50,20.93,20.93,20.93
9.65,-0.89,2.46,20.72,20.72,20.72
9.60,-0.85,2.50,20.44,20.37,20.37
9.55,-0.82,2.51,20.23,20.23,20.23
9.55,-0.80,2.57,19.95,19.95,20.02
9.55,-0.78,2.61,20.09,20.09,20.09
9.58,-0.77,2.64,20.37,20.37,20.37
9.61,-0.70,2.68,20.79,20.72,20.72
9.62,-0.67,2.73,20.93,21.00,21.00
9.57,-0.63,2.76,21.00,20.93,20.93
9.49,-0.58,2.85,20.65,20.65,20.51
9.27,-0.43,3.06,17.99,17.78,17.78
9.15,-0.37,3.13,16.10,15.82,15.82
9.00,-0.36,3.23,14.07,13.86,13.86
8.99,-0.32,3.32,11.83,11.55,11.55
8.92,-0.37,3.41,9.03,9.03,8.61
8.98,-0.41,3.45,6.86,6.86,6.72
9.06,-0.45,3.48,4.83,4.34,4.34
9.08,-0.52,3.44,2.87,2.87,2.80
9.12,-0.55,3.40,0.98,0.98,0.98
9.29,-0.55,3.34,-0.14,-0.63,-0.63
9.43,-0.57,3.25,-1.68,-1.68,-2.10
9.44,-0.56,3.12,-3.78,-3.78,-3.78
9.50,-0.56,3.05,-5.46,-5.74,-5.74
9.55,-0.53,2.99,-7.91,-8.12,-8.12
9.54,-0.58,2.96,-9.38,-9.38,-9.59
9.54,-0.62,2.98,-10.99,-10.99,-10.99
9.51,-0.68,2.98,-11.55,-11.69,-11.69
9.53,-0.73,3.03,-12.18,-12.18,-12.18
9.54,-0.76,3.07,-12.74,-12.74,-12.74
9.47,-0.79,3.13,-13.30,-13.30,-13.30
9.44,-0.83,3.18,-13.72,-13.65,-13.65
9.39,-0.85,3.23,-13.79,-13.79,-13.79
9.27,-0.89,3.35,-13.58,-13.44,-13.44
9.25,-0.89,3.34,-13.16,-13.16,-13.16
9.21,-0.88,3.32,-12.81,-12.81,-12.60
9.23,-0.83,3.30,-12.67,-12.67,-12.67
9.30,-0.75,3.23,-13.37,-13.51,-13.51
9.38,-0.67,3.17,-14.42,-14.98,-14.98
9.42,-0.59,3.08,-17.29,-17.29,-17.29
9.50,-0.50,2.97,-21.28,-21.77,-21.77
9.52,-0.44,2.86,-25.69,-26.39,-26.39
9.53,-0.42,2.85,-29.47,-31.36,-31.36
9.62,-0.43,2.83,-34.58,-35.21,-36.40
9.65,-0.52,2.81,-40.18,-40.18,-40.81
9.68,-0.61,2.85,-44.38,-44.38,-44.38
9.70,-0.71,2.84,-46.48,-46.48,-46.48
9.69,-0.83,2.86,-47.60,-47.60,-47.60
9.69,-0.92,2.85,-48.09,-48.09,-48.09
9.64,-0.95,2.81,-47.53,-47.53,-47.53
9.57,-1.04,2.78,-46.62,-46.62,-46.62
9.48,-1.03,2.75,-44.73,-44.73,-44.73
9.31,-1.09,2.75,-41.58,-41.16,-41.16
9.31,-1.12,2.80,-39.48,-38.99,-38.99
9.28,-1.16,2.84,-37.03,-36.47,-36.47
9.31,-1.22,2.86,-34.65,-33.88,-33.88
9.33,-1.32,2.94,-27.51,-27.51,-27.51
9.35,-1.35,2.95,-24.78,-24.78,-24.78
9.38,-1.40,2.97,-22.61,-22.12,-22.12
9.35,-1.43,2.97,-20.16,-20.16,-19.60
9.37,-1.49,2.98,-16.80,-16.80,-16.80
9.32,-1.54,2.96,-14.42,-14.42,-14.42
9.29,-1.62,2.98,-9.45,-9.45,-9.45
9.25,-1.65,2.99,-5.04,-4.34,-4.34
9.18,-1.66,2.93,0.70,0.70,0.70
9.15,-1.68,2.92,8.26,9.03,9.03
9.15,-1.64,2.92,13.65,15.26,16.31
9.20,-1.59,2.93,20.93,20.93,23.52
9.32,-1.56,3.02,28.00,28.00,30.66
9.39,-1.56,3.10,36.54,36.54,37.45
9.51,-1.54,3.13,42.63,42.63,43.47
9.56,-1.51,3.16,46.76,48.09,48.72
9.52,-1.45,3.12,51.38,51.38,51.87
9.47,-1.32,3.16,54.46,54.60,54.60
9.40,-1.17,3.17,55.30,55.30,54.81
9.30,-0.91,3.10,52.36,52.36,51.80
9.27,-0.78,3.09,48.09,48.09,47.39
9.23,-0.49,3.11,26.88,25.62,25.62
9.32,-0.54,3.20,18.97,17.92,17.92
9.43,-0.74,3.33,10.78,10.78,10.22
9.46,-0.86,3.33,7.49,7.49,7.35
9.47,-0.96,3.33,6.58,6.44,6.44
9.51,-1.03,3.33,6.58,6.58,6.86
9.49,-1.00,3.28,7.42,7.42,7.56
9.46,-0.97,3.23,9.03,9.03,9.17
9.38,-0.97,3.24,10.50,10.50,10.50
9.32,-1.01,3.24,11.41,11.62,11.62
9.29,-1.05,3.36,12.11,12.11,12.11
9.26,-1.03,3.37,10.85,10.71,10.71
9.28,-0.94,3.40,7.28,6.72,6.72
9.23,-0.83,3.34,3.22,0.70,0.70
9.17,-0.69,3.25,-3.85,-4.90,-6.58
9.16,-0.64,3.16,-11.55,-12.60,-12.60
9.12,-0.69,3.04,-20.44,-20.44,-21.14
9.11,-0.73,3.03,-25.76,-25.76,-26.11
9.19,-0.83,3.06,-28.14,-28.56,-28.70
9.22,-0.94,3.08,-29.19,-29.19,-28.91
9.32,-1.06,3.12,-27.44,-27.44,-27.44
9.40,-1.18,3.25,-23.66,-23.66,-23.66
9.50,-1.31,3.33,-20.65,-19.53,-19.53
9.53,-1.45,3.34,-15.96,-15.96,-14.77
9.56,-1.49,3.32,-10.29,-10.29,-9.73
9.53,-1.52,3.31,-4.20,-4.20,-4.20
9.49,-1.53,3.36,0.00,0.00,0.00
9.50,-1.52,3.39,5.60,5.60,5.60
9.49,-1.51,3.42,8.47,9.10,9.10
9.46,-1.45,3.40,11.13,11.34,11.34
9.41,-1.30,3.27,12.18,12.18,12.18
9.29,-1.11,3.13,11.41,11.41,11.34
9.21,-0.89,2.99,8.47,8.47,8.47
9.16,-0.65,2.85,1.96,1.96,1.96
9.17,-0.58,2.83,-2.45,-3.29,-3.29
9.21,-0.58,2.83,-8.33,-8.33,-8.89
9.23,-0.69,2.92,-13.51,-13.51,-13.79
9.25,-0.75,3.00,-15.19,-15.19,-15.33
9.26,-0.85,3.04,-15.40,-15.40,-15.33
9.27,-0.97,3.11,-12.81,-12.25,-12.25
9.32,-1.06,3.22,-10.29,-9.45,-9.45
9.35,-1.12,3.25,-6.72,-6.72,-5.74
9.37,-1.16,3.24,-1.89,-1.89,-1.89
9.43,-1.14,3.20,1.68,1.96,1.96
9.53,-1.10,3.12,2.94,3.08,3.08
9.66,-1.01,3.05,2.31,2.10,1.33
9.78,-0.93,2.96,-2.73,-3.29,-3.29
9.84,-0.90,2.92,-8.96,-9.66,-9.66
9.77,-0.95,2.90,-13.51,-14.84,-14.84
9.60,-1.01,2.88,-17.99,-18.48,-18.48
9.44,-1.17,2.87,-20.65,-20.65,-20.65
9.28,-1.23,2.85,-20.51,-20.51,-20.23
9.10,-1.01,2.86,-12.95,-12.95,-12.95
9.24,-0.97,2.85,-9.66,-9.52,-9.52
9.31,-0.98,2.81,-8.19,-8.19,-8.05
9.44,-0.96,2.79,-6.44,-6.44,-6.44
9.39,-0.98,2.76,-5.25,-5.25,-5.04
9.37,-0.97,2.76,-4.27,-4.27,-4.06
9.34,-0.98,2.74,-2.31,-2.31,-2.31
9.36,-0.99,2.73,-0.70,-0.70,-0.70
9.35,-1.03,2.66,2.17,2.17,2.17
9.38,-1.03,2.60,4.20,4.48,4.48
9.43,-1.06,2.61,7.42,7.42,7.63
9.41,-1.00,2.68,9.38,9.66,9.66
9.39,-0.97,2.80,11.41,11.41,11.62
9.29,-0.89,2.96,13.23,13.23,13.23
9.17,-0.76,3.10,13.79,13.79,13.79
9.03,-0.66,3.19,13.93,13.86,13.86
8.96,-0.56,3.29,13.23,13.23,13.23
8.97,-0.51,3.28,12.53,12.53,12.53
9.06,-0.51,3.29,11.41,11.41,11.41
9.25,-0.48,3.25,10.15,10.15,10.15
9.43,-0.49,3.23,9.31,9.10,9.10
10.19,-0.67,3.15,8.05,8.05,8.12
10.27,-0.72,3.10,8.12,8.12,8.12
10.29,-0.76,3.05,8.19,8.19,8.19
10.16,-0.71,3.03,8.47,8.47,8.40
10.00,-0.75,3.05,8.68,8.61,8.61
9.89,-0.72,3.12,8.19,8.19,8.12
9.75,-0.77,3.17,7.28,7.28,7.14
9.67,-0.74,3.20,5.81,5.81,5.39
9.67,-0.71,3.13,-1.82,-1.82,-1.82
9.46,-0.51,3.09,-13.79,-13.79,-15.12
9.34,-0.49,3.07,-19.88,-19.88,-19.88
9.28,-0.48,3.05,-21.84,-21.84,-21.84
9.26,-0.44,3.06,-22.68,-22.89,-22.89
9.30,-0.54,3.05,-23.80,-23.80,-23.80
9.34,-0.50,3.00,-24.15,-24.15,-24.15
9.35,-0.52,2.99,-24.15,-24.15,-24.15
9.48,-0.59,2.98,-23.94,-23.73,-23.73
9.49,-0.62,2.99,-23.45,-23.45,-23.31
9.46,-0.70,3.01,-22.75,-22.54,-22.54
9.39,-0.70,3.06,-21.63,-21.63,-21.35
9.42,-0.73,3.09,-20.72,-20.58,-20.30
9.43,-0.75,3.11,-19.53,-19.53,-19.18
9.44,-0.79,3.15,-18.34,-17.99,-17.71
9.39,-0.86,3.16,-16.66,-16.66,-15.89
9.26,-0.94,3.35,-11.27,-11.27,-10.92
9.13,-1.03,3.48,-3.36,-3.36,-3.36
9.04,-0.94,3.61,0.35,0.49,0.49
9.04,-0.89,3.69,2.10,2.10,2.17
9.08,-0.72,3.60,4.13,4.13,4.55
9.06,-0.62,3.58,5.46,5.46,5.60
8.96,-0.57,3.54,6.16,6.16,6.16
8.97,-0.56,3.54,6.30,6.30,6.30
9.07,-0.51,3.51,5.95,5.81,5.74
9.19,-0.46,3.43,5.25,5.18,5.18
9.29,-0.45,3.37,3.57,3.50,3.50
9.36,-0.41,3.33,1.75,1.54,1.54
9.40,-0.39,3.29,-0.35,-0.56,-0.56
9.43,-0.37,3.28,-3.08,-3.08,-3.15
9.49,-0.39,3.24,-4.62,-4.62,-5.46
9.55,-0.42,3.21,-7.28,-7.28,-7.28
9.59,-0.47,3.14,-9.59,-9.94,-9.94
9.41,-0.70,3.15,-15.89,-16.10,-16.10
9.25,-0.93,3.28,-20.65,-20.65,-20.65
9.12,-1.00,3.35,-21.00,-20.93,-20.93
8.94,-1.07,3.43,-20.44,-20.37,-20.37
8.82,-1.18,3.49,-18.90,-18.90,-18.62
8.76,-1.22,3.62,-16.45,-16.17,-16.17
8.82,-1.20,3.74,-11.76,-11.48,-11.48
8.85,-1.31,3.84,-9.38,-9.38,-9.03
8.91,-1.33,3.88,-7.14,-7.14,-7.14
8.90,-1.38,3.93,-4.41,-4.13,-4.13
9.02,-1.31,3.93,-0.77,-0.28,-0.28
9.22,-1.27,3.87,1.89,2.38,2.38
9.35,-1.31,3.81,4.69,5.11,5.11
9.41,-1.35,3.75,7.84,8.12,8.12
9.38,-1.28,3.57,17.57,17.57,17.57
9.35,-1.29,3.43,21.84,21.84,21.84
9.38,-1.24,3.36,24.29,24.29,24.29
9.53,-1.01,3.23,26.18,26.18,26.18
9.32,-1.09,3.21,27.72,27.72,27.72
9.21,-1.03,3.35,28.42,28.42,28.42
9.15,-0.99,3.45,27.86,27.86,27.86
9.14,-0.97,3.51,26.95,26.95,26.95
9.15,-1.07,3.62,26.25,26.25,26.25
9.11,-1.10,3.68,26.46,26.53,26.53
9.10,-1.12,3.72,27.30,27.65,27.65
8.99,-1.07,3.79,28.70,28.70,28.70
9.04,-1.00,3.89,28.70,28.70,28.70
8.94,-0.95,3.97,27.93,27.93,27.65
8.93,-0.90,4.00,26.11,26.11,26.11
8.95,-0.83,3.96,23.73,23.59,23.59
8.90,-0.79,3.98,21.49,21.49,21.07
8.93,-0.77,3.90,18.34,18.34,18.34
8.95,-0.70,3.90,16.17,16.17,16.17
9.28,-0.70,3.96,8.05,8.05,8.05
9.33,-0.69,3.94,5.88,5.67,5.04
9.34,-0.67,3.95,3.78,3.50,3.50
9.37,-0.64,3.95,1.12,0.98,0.98
9.34,-0.64,3.96,-0.28,-0.35,-0.35
9.31,-0.67,3.90,-1.89,-1.89,-1.89
9.21,-0.66,3.87,-3.08,-3.08,-3.08
9.24,-0.63,3.83,-3.99,-3.99,-3.99
9.20,-0.69,3.74,-3.85,-3.85,-3.85
9.10,-0.72,3.70,-3.50,-3.50,-3.50
9.02,-0.77,3.69,-3.01,-3.01,-3.01
9.05,-0.76,3.71,-2.38,-2.38,-2.38
9.15,-0.73,3.65,-2.24,-2.24,-2.24
9.28,-0.76,3.58,-2.87,-2.94,-2.94
9.32,-0.86,3.53,-4.06,-4.06,-4.13
9.26,-0.97,3.49,-4.83,-4.83,-4.83
9.17,-1.00,3.57,-5.67,-5.81,-5.81
9.19,-1.05,3.71,-6.44,-6.51,-6.51
9.22,-1.02,3.71,-7.28,-7.28,-7.35
9.11,-1.10,3.72,-8.12,-8.26,-8.26
9.09,-1.19,3.81,-8.26,-8.26,-8.12
9.07,-1.29,3.90,-7.42,-7.42,-7.14
8.98,-1.31,3.97,-6.23,-5.74,-5.53
9.01,-1.34,4.05,-3.92,-3.71,-3.71
8.98,-1.29,4.10,-1.61,-1.61,-1.54
8.93,-1.33,4.18,1.40,1.75,2.10
8.93,-1.18,4.20,2.87,2.87,3.29
9.03,-1.02,4.16,3.50,3.50,3.64
9.12,-0.86,4.01,3.99,3.99,4.20
9.16,-0.79,3.91,4.62,4.62,4.62
9.17,-0.77,3.80,5.53,5.60,5.60
9.14,-0.75,3.79,6.16,6.37,6.37
9.14,-0.77,3.75,7.00,7.14,7.14
9.15,-0.77,3.75,7.84,7.84,7.84
9.15,-0.78,3.66,8.40,8.40,8.40
9.15,-0.82,3.62,8.19,8.19,8.19
9.17,-0.89,3.58,7.42,7.28,7.28
9.24,-0.95,3.55,6.02,6.02,6.02
9.30,-0.94,3.48,4.06,4.06,4.06
9.30,-0.95,3.58,0.28,0.28,0.28
9.27,-0.97,3.64,-2.73,-2.73,-2.73
9.21,-1.00,3.76,-6.09,-6.44,-6.44
9.21,-1.03,3.84,-8.12,-8.54,-8.54
9.18,-1.09,3.87,-10.43,-10.43,-10.78
9.12,-1.12,3.87,-12.53,-12.53,-12.60
9.12,-1.13,3.83,-13.23,-13.23,-13.16
9.16,-1.12,3.79,-13.02,-13.02,-12.88
9.15,-1.17,3.68,-12.04,-12.04,-11.83
9.11,-1.25,3.64,-10.01,-10.01,-10.01
9.06,-1.33,3.62,-8.54,-8.54,-8.33
9.02,-1.36,3.55,-6.44,-6.44,-6.44
8.91,-1.36,3.54,-4.69,-4.69,-4.48
8.84,-1.29,3.44,-2.59,-2.59,-2.59
8.78,-1.22,3.37,-0.21,-0.21,-0.21
8.86,-1.17,3.37,1.19,1.54,1.54
8.99,-1.09,3.32,3.15,3.71,3.92
9.20,-1.02,3.35,5.25,5.53,5.53
9.37,-1.00,3.38,7.21,7.21,7.49
9.63,-0.99,3.44,8.54,8.54,8.61
9.82,-0.98,3.48,9.94,9.94,10.01
9.89,-1.01,3.51,10.36,10.36,10.36
10.03,-1.00,3.58,10.71,10.71,10.78
10.05,-1.09,3.49,10.92,10.92,10.92
9.96,-1.11,3.41,10.85,10.85,10.99
9.79,-1.13,3.33,10.99,10.99,10.99
9.57,-1.12,3.23,11.06,11.06,11.06
9.33,-1.09,3.19,11.20,11.20,11.20
9.12,-1.07,3.17,11.13,11.13,11.13
8.93,-1.09,3.20,10.99,10.99,10.99
8.89,-1.12,3.27,11.27,11.27,11.06
8.82,-1.13,3.36,11.20,11.20,11.20
8.75,-1.16,3.43,11.48,11.48,11.48
8.70,-1.17,3.49,12.04,12.04,12.04
8.60,-1.18,3.56,12.67,12.67,12.67
8.62,-1.15,3.64,13.23,13.23,13.23
8.75,-1.14,3.85,13.86,13.86,13.86
9.09,-1.13,3.98,14.35,14.56,14.56
9.59,-1.17,4.24,14.91,14.91,14.91
9.95,-1.28,4.44,15.12,15.12,15.12
9.99,-1.42,4.32,14.70,14.70,14.70
9.66,-1.39,4.15,14.21,14.21,14.21
9.24,-1.26,3.94,13.72,13.37,13.37
8.82,-1.07,3.74,12.88,12.88,12.88
8.55,-0.90,3.60,12.18,12.04,12.04
8.41,-0.76,3.56,11.62,11.27,11.27
8.41,-0.70,3.55,10.71,10.71,10.71
8.55,-0.70,3.61,9.73,9.73,9.73
8.85,-0.78,3.66,9.10,8.82,8.82
9.13,-0.90,3.69,8.05,8.05,7.84
9.28,-1.00,3.68,7.28,7.28,7.28
9.48,-1.01,3.72,6.44,6.37,6.37
9.99,-1.06,3.97,5.46,5.39,5.39
10.31,-1.12,4.13,4.55,4.41,4.41
10.20,-1.22,4.10,2.94,2.73,2.73
9.75,-1.19,3.98,0.91,0.56,0.56
9.27,-1.15,3.94,-1.05,-2.10,-2.10
8.77,-1.03,3.87,-4.76,-4.76,-4.76
8.50,-0.94,3.87,-9.38,-9.38,-9.38
8.38,-0.89,3.92,-13.51,-13.51,-13.51
8.41,-0.85,4.06,-20.02,-20.93,-20.93
8.56,-0.81,4.13,-25.06,-26.81,-27.65
8.77,-0.81,4.10,-33.39,-33.39,-33.39
8.92,-0.82,4.00,-40.25,-40.81,-40.81
9.09,-0.81,3.92,-44.03,-45.78,-45.78
9.27,-0.83,3.88,-48.23,-49.77,-49.77
9.38,-0.86,3.77,-51.87,-53.13,-53.13
9.47,-0.91,3.69,-55.72,-55.72,-55.72
9.52,-0.97,3.60,-58.45,-58.45,-58.45
9.53,-1.00,3.57,-60.20,-60.20,-60.20
9.55,-1.07,3.52,-62.37,-62.65,-62.65
9.55,-1.16,3.47,-64.05,-64.12,-64.12
9.53,-1.24,3.37,-65.87,-65.87,-65.94
9.49,-1.33,3.30,-66.92,-66.92,-67.06
9.47,-1.43,3.25,-68.04,-68.04,-68.04
9.43,-1.52,3.17,-68.53,-68.53,-68.53
9.40,-1.62,3.16,-68.39,-68.39,-68.39
9.32,-1.75,3.11,-67.62,-67.27,-67.27
9.27,-1.80,3.15,-65.94,-65.38,-65.38
9.13,-1.98,3.26,-59.29,-58.59,-58.59
8.98,-1.99,3.24,-53.97,-53.97,-53.34
8.90,-2.01,3.28,-50.47,-49.28,-49.28
8.83,-2.01,3.34,-45.64,-45.64,-44.45
8.77,-1.97,3.37,-35.56,-35.56,-35.56
8.83,-1.97,3.33,-31.64,-31.64,-31.64
8.89,-1.97,3.31,-28.98,-28.42,-28.42
8.98,-2.00,3.22,-25.06,-24.57,-24.57
9.12,-2.02,3.19,-23.17,-23.17,-22.33
9.27,-2.03,3.09,-20.79,-20.79,-20.51
9.30,-2.04,3.02,-19.46,-19.46,-19.46
9.34,-2.05,2.98,-19.32,-19.39,-19.39
9.39,-2.06,2.94,-19.53,-19.53,-19.60
9.42,-2.09,2.92,-20.09,-20.16,-20.30
9.40,-2.13,2.94,-20.58,-20.58,-20.65
9.37,-2.17,3.01,-20.65,-20.65,-20.65
9.29,-2.22,3.10,-20.02,-20.02,-19.88
9.18,-2.21,3.16,-18.83,-18.83,-18.55
9.12,-2.23,3.22,-17.29,-16.87,-16.45
9.04,-2.28,3.32,-14.84,-14.84,-13.65
8.94,-2.30,3.37,-11.20,-10.57,-10.57
8.91,-2.33,3.42,-7.35,-7.35,-6.86
8.90,-2.34,3.47,-3.15,-3.15,-2.66
8.91,-2.37,3.50,2.31,2.31,2.87
8.96,-2.42,3.49,6.44,6.44,6.44
8.96,-2.41,3.46,11.27,11.27,11.69
8.96,-2.40,3.38,15.26,15.82,15.82
8.98,-2.34,3.36,18.13,19.39,19.39
9.02,-2.27,3.31,21.91,21.91,21.91
9.06,-2.25,3.29,24.43,24.43,24.43
9.14,-2.21,3.27,25.41,25.41,25.41
9.23,-2.20,3.24,25.34,25.34,25.34
9.26,-2.14,3.19,24.50,24.50,24.50
9.27,-2.07,3.16,23.59,23.03,23.03
9.26,-2.01,3.15,21.56,21.56,21.35
9.23,-1.96,3.13,20.09,20.09,20.09
9.21,-1.99,3.13,18.20,18.20,18.20
9.13,-2.01,3.08,17.64,17.43,17.43
9.05,-2.03,3.09,17.29,17.29,17.29
9.10,-2.04,3.13,17.78,17.78,17.78
9.10,-2.07,3.17,18.41,18.41,18.62
9.14,-2.10,3.25,19.25,19.25,19.25
9.06,-2.11,3.32,21.14,21.14,21.14
9.12,-2.07,3.30,23.73,23.94,23.94
9.15,-2.06,3.29,25.62,25.62,25.62
9.27,-2.13,3.30,28.35,28.35,28.35
9.37,-2.22,3.31,30.31,31.15,31.15
9.43,-2.30,3.24,33.53,34.30,34.30
9.44,-2.38,3.18,37.59,37.59,37.59
9.40,-2.36,3.15,42.98,42.98,42.98
9.06,-2.29,3.09,56.28,56.84,56.84
8.92,-2.23,3.09,61.39,61.39,61.39
8.83,-2.15,3.15,67.34,67.34,67.34
8.73,-2.04,3.19,71.26,71.26,71.26
8.72,-1.99,3.31,75.53,75.95,75.95
8.69,-1.93,3.35,77.77,78.75,78.75
8.66,-1.85,3.42,80.29,80.29,80.50
8.69,-1.70,3.52,81.83,81.83,81.83
8.80,-1.52,3.58,82.32,82.32,82.32
9.02,-1.41,3.72,82.04,82.04,82.04
9.29,-1.37,3.87,81.13,80.92,80.92
9.47,-1.37,3.91,79.87,79.10,79.10
9.65,-1.43,3.87,77.21,77.21,77.21
9.73,-1.49,3.71,74.97,74.69,74.69
9.81,-1.54,3.62,73.22,73.08,73.08
9.78,-1.62,3.52,70.70,70.70,70.42
9.70,-1.68,3.52,68.67,68.04,67.48
9.56,-1.71,3.60,64.54,64.54,64.54
9.44,-1.70,3.73,61.25,60.83,60.83
9.29,-1.51,3.84,56.77,56.42,56.42
9.09,-1.42,3.85,53.41,53.20,53.20
8.81,-1.20,3.91,48.72,47.88,47.88
8.61,-1.19,4.00,43.33,43.33,42.98
8.78,-1.16,3.97,28.07,27.65,27.65
8.93,-1.23,3.92,24.01,24.01,23.66
9.26,-1.32,3.91,18.90,18.69,18.69
9.28,-1.39,3.85,16.03,16.03,15.82
9.30,-1.37,3.87,14.49,13.93,13.72
9.34,-1.37,3.91,12.53,11.83,11.69
9.36,-1.40,3.91,10.71,10.71,10.15
9.32,-1.46,3.91,9.10,9.10,9.10
9.21,-1.52,3.92,8.19,8.19,8.19
9.04,-1.52,3.96,7.77,7.77,7.77
8.99,-1.51,4.00,7.56,7.56,7.56
8.99,-1.47,4.08,7.77,7.77,7.77
9.00,-1.50,4.11,7.91,7.98,7.98
9.02,-1.51,4.10,7.98,7.98,7.98
9.03,-1.52,4.08,8.12,8.12,7.98
8.96,-1.48,4.01,7.77,7.77,7.77
8.91,-1.42,3.92,6.58,6.58,6.58
8.89,-1.33,3.89,5.53,5.53,5.53
8.87,-1.26,3.82,4.48,4.06,4.06
8.88,-1.23,3.79,2.94,2.80,2.45
8.98,-1.17,3.80,0.98,0.70,0.70
9.02,-1.20,3.80,-1.12,-1.12,-1.33
9.03,-1.17,3.77,-2.24,-2.24,-2.45
9.01,-1.17,3.74,-3.22,-3.36,-3.36
9.00,-1.17,3.75,-3.78,-3.78,-3.71
9.09,-1.19,3.80,-4.06,-4.06,-4.06
9.17,-1.22,3.89,-4.41,-4.41,-4.41
9.29,-1.23,3.94,-4.76,-4.76,-4.76
9.32,-1.26,3.92,-4.97,-4.97,-4.97
9.37,-1.24,3.91,-4.76,-4.76,-4.69
9.41,-1.28,3.91,-4.55,-4.48,-4.41
9.41,-1.36,3.91,-3.99,-3.99,-3.99
9.40,-1.43,3.93,-4.13,-4.27,-4.27
9.31,-1.49,3.95,-5.46,-5.81,-5.81
9.22,-1.53,3.94,-8.26,-8.26,-8.61
9.09,-1.53,3.98,-12.67,-12.67,-13.16
8.95,-1.53,4.07,-16.03,-16.03,-16.38
8.84,-1.53,4.12,-17.85,-18.27,-18.48
8.79,-1.49,4.16,-18.83,-18.83,-18.97
8.89,-1.44,4.23,-18.90,-18.90,-18.83
8.93,-1.33,4.16,-18.83,-18.83,-18.76
8.93,-0.02,4.05,-18.83,-18.83,-18.83
8.93,-1.12,3.98,-18.62,-18.76,-18.76
9.03,-1.04,3.85,-18.48,-18.48,-18.48
9.05,-1.10,3.70,-17.78,-17.78,-17.71
9.13,-1.12,3.62,-17.08,-17.08,-17.08
9.27,-1.17,3.60,-16.10,-16.10,-16.10
9.44,-1.22,3.62,-14.84,-14.84,-14.84
9.71,-1.24,3.74,-12.67,-12.67,-12.67
9.70,-1.28,3.77,-11.83,-11.69,-11.69
9.57,-1.24,3.78,-11.41,-11.34,-11.34
9.33,-1.25,3.78,-11.55,-12.04,-12.04
9.12,-1.17,3.79,-13.51,-14.07,-15.19
8.88,-0.91,3.68,-28.77,-33.11,-33.11
8.78,-0.88,3.57,-43.47,-43.47,-43.47
8.71,-1.07,3.54,-53.27,-53.27,-54.25
8.74,-1.27,3.65,-59.64,-60.55,-60.55
8.89,-1.51,3.77,-62.16,-62.16,-62.37
8.92,-1.67,3.73,-62.16,-62.16,-62.16
9.03,-1.76,3.65,-60.34,-60.34,-60.34
9.19,-1.72,3.65,-56.42,-56.42,-56.42
9.33,-1.77,3.61,-53.34,-52.36,-52.36
9.44,-1.83,3.61,-48.72,-47.46,-47.46
9.56,-1.90,3.62,-42.91,-42.91,-42.35
9.55,-2.03,3.58,-36.19,-36.19,-36.19
9.45,-2.07,3.55,-30.59,-30.59,-30.59
9.31,-2.11,3.54,-25.34,-25.34,-25.34
9.17,-2.06,3.55,-21.00,-21.00,-21.00
9.04,-2.02,3.56,-16.38,-16.38,-16.38
8.92,-1.94,3.57,-14.42,-13.65,-13.65
8.80,-1.88,3.60,-11.83,-11.83,-11.83
8.75,-1.86,3.64,-9.80,-9.52,-9.52
8.71,-1.83,3.69,-8.05,-8.05,-7.77
8.70,-1.87,3.80,-5.67,-5.67,-5.67
8.67,-1.92,3.80,-1.75,-1.75,-1.75
8.64,-1.94,3.85,1.68,1.68,1.68
8.72,-1.96,3.87,4.48,4.48,4.90
8.76,-1.93,3.84,9.17,9.17,9.17
8.79,-1.95,3.82,12.53,12.53,12.53
8.91,-1.95,3.80,16.80,16.80,16.80
9.02,-1.98,3.79,20.09,20.44,20.44
9.03,-1.98,3.74,21.70,22.05,22.26
9.05,-1.95,3.67,22.61,22.54,22.40
9.00,-1.89,3.63,21.84,21.84,21.42
8.93,-1.78,3.70,20.30,20.30,20.16
8.93,-1.74,3.78,18.13,17.85,17.85
8.92,-1.75,3.89,15.61,15.61,15.47
8.93,-1.77,3.93,14.28,13.93,13.79
9.00,-1.77,3.99,13.02,13.02,12.95
9.01,-1.78,3.98,12.67,12.67,12.60
9.06,-1.80,4.02,12.74,12.74,12.74
9.05,-1.80,4.02,13.02,13.02,13.02
9.00,-1.84,4.00,13.51,13.51,13.58
9.00,-1.83,4.01,14.14,14.14,14.14
8.97,-1.81,4.02,13.65,13.65,13.65
8.93,-1.79,3.99,12.46,12.46,12.46
8.96,-1.73,4.02,10.92,10.92,10.92
8.89,-1.68,4.00,7.91,7.91,7.91
8.86,-1.62,3.99,5.60,4.76,4.76
8.83,-1.62,3.96,2.45,2.45,1.54
8.84,-1.59,3.96,-0.84,-0.84,-0.84
8.85,-1.59,3.89,-4.41,-4.41,-4.41
8.86,-1.61,3.88,-6.79,-7.42,-7.42
8.89,-1.66,3.84,-8.96,-8.96,-9.38
8.85,-1.70,3.81,-10.50,-10.50,-10.50
8.99,-1.81,3.78,-11.97,-11.97,-11.97
9.03,-1.85,3.77,-11.34,-11.20,-11.20
9.09,-1.88,3.81,-10.71,-10.57,-10.57
9.12,-1.93,3.84,-9.38,-9.38,-9.17
9.12,-2.02,3.85,-8.05,-8.05,-7.84
9.04,-2.14,3.83,-3.15,-3.15,-3.15
9.01,-2.21,3.81,0.98,0.98,0.98
8.94,-2.20,3.81,4.20,4.20,4.20
8.92,-2.16,3.79,7.70,7.70,8.33
8.86,-2.14,3.77,11.20,11.20,11.55
8.85,-2.11,3.77,15.05,15.05,15.05
8.82,-2.01,3.74,16.59,16.59,16.59
8.80,-1.93,3.72,18.41,18.41,18.41
8.80,-1.88,3.66,19.11,19.11,19.11
8.80,-1.80,3.60,19.25,19.25,19.25
8.89,-1.73,3.59,19.11,19.11,19.11
8.96,-1.69,3.57,18.48,18.34,18.34
9.06,-1.70,3.58,17.71,17.78,17.78
9.15,-1.70,3.55,17.15,17.15,17.22
9.20,-1.71,3.54,16.87,16.80,16.73
9.24,-1.72,3.54,16.80,16.80,16.73
9.31,-1.74,3.58,17.57,17.57,17.71
9.34,-1.76,3.62,18.55,18.55,18.69
9.35,-1.81,3.64,19.53,20.16,20.23
9.34,-1.84,3.66,21.35,21.91,22.12
9.28,-1.88,3.67,24.22,24.22,24.43
9.20,-1.92,3.68,26.39,26.39,26.67
9.17,-1.92,3.73,29.47,29.47,29.47
9.11,-1.89,3.78,31.50,31.50,31.50
9.04,-1.87,3.79,33.11,33.11,33.11
8.98,-1.83,3.84,34.09,34.09,34.09
8.90,-1.77,3.84,34.44,34.44,34.44
8.89,-1.64,3.81,33.32,33.32,33.32
8.91,-1.58,3.73,32.41,32.20,32.20
8.96,-1.52,3.68,30.31,30.31,30.10
9.03,-1.49,3.66,28.49,28.49,28.35
9.10,-1.47,3.64,26.95,26.95,26.74
9.13,-1.44,3.62,24.85,24.85,24.85
9.20,-1.42,3.63,23.59,23.59,23.52
9.24,-1.43,3.65,21.84,21.84,21.84
9.25,-1.40,3.65,20.93,20.65,20.65
9.26,-1.39,3.64,19.32,19.32,19.25
9.25,-1.36,3.66,17.99,17.99,17.85
9.16,-1.31,3.69,14.00,14.00,14.00
9.10,-1.28,3.70,11.20,11.20,11.20
9.05,-1.25,3.70,8.68,8.68,8.68
9.06,-1.21,3.69,6.93,6.93,6.93
9.11,-1.21,3.70,4.20,3.85,3.85
9.15,-1.20,3.72,1.82,1.82,1.82
9.19,-1.23,3.73,-0.07,-0.35,-0.35
9.19,-1.28,3.73,-2.10,-2.10,-2.24
9.21,-1.33,3.73,-3.15,-3.15,-3.29
9.22,-1.39,3.74,-3.78,-3.78,-3.78
9.18,-1.45,3.74,-3.92,-3.92,-3.92
9.15,-1.46,3.77,-3.78,-3.78,-3.78
9.12,-1.49,3.80,-3.29,-3.29,-3.29
9.05,-1.52,3.83,-2.52,-2.38,-2.38
9.05,-1.55,3.88,-1.89,-1.61,-1.61
9.05,-1.57,3.95,-0.91,-0.77,-0.77
9.07,-1.61,3.96,-0.28,-0.28,-0.28
9.07,-1.62,3.95,0.42,0.42,0.42
9.11,-1.62,3.94,0.91,0.91,0.91
9.13,-1.59,3.93,0.98,0.98,0.98
9.17,-1.56,3.87,0.98,1.12,1.12
9.19,-1.48,3.85,0.56,0.56,0.35
9.22,-1.41,3.80,-0.56,-0.56,-0.63
9.23,-1.39,3.72,-1.89,-1.89,-2.03
9.27,-1.32,3.65,-3.57,-3.57,-3.57
9.29,-1.30,3.56,-6.02,-6.02,-6.02
9.35,-1.30,3.55,-7.56,-7.91,-7.91
9.36,-1.29,3.46,-10.15,-10.50,-10.50
9.34,-1.28,3.45,-13.72,-13.72,-14.00
9.31,-1.30,3.48,-15.40,-15.89,-15.89
9.23,-1.37,3.47,-17.01,-17.29,-17.50
9.13,-1.46,3.52,-17.85,-17.85,-17.85
9.10,-1.55,3.58,-17.64,-17.29,-17.29
9.05,-1.67,3.61,-16.31,-15.96,-15.75
9.01,-1.74,3.63,-14.28,-14.28,-13.09
8.89,-1.77,3.67,-10.50,-10.50,-10.01
8.90,-1.79,3.71,-6.09,-6.09,-6.09
8.85,-1.81,3.74,-3.22,-2.17,-2.17
8.88,-1.85,3.79,0.91,0.91,1.33
8.88,-1.91,3.80,5.81,5.81,5.81
8.90,-1.93,3.79,8.96,9.94,9.94
8.92,-1.88,3.78,12.95,13.86,13.86
8.93,-1.82,3.77,17.22,17.22,17.71
8.99,-1.80,3.73,21.35,21.35,21.35
9.02,-1.75,3.74,23.94,23.94,23.94
9.04,-1.69,3.72,26.74,26.74,26.74
9.05,-1.61,3.75,27.86,28.28,28.28
9.13,-1.50,3.78,28.91,29.05,29.05
9.14,-1.48,3.80,29.12,29.12,29.19
9.16,-1.41,3.85,28.84,28.84,28.84
9.20,-1.34,3.89,27.79,27.72,27.72
9.21,-1.32,3.91,26.74,26.74,26.60
9.15,-1.28,3.88,24.57,24.57,24.57
9.12,-1.25,3.90,23.31,23.31,23.31
9.08,-1.22,3.91,21.14,21.14,21.14
9.04,-1.13,3.94,18.90,18.90,18.90
9.03,-1.10,3.93,16.24,16.24,15.61
9.00,-1.09,3.96,13.44,13.44,12.81
8.98,-1.08,3.96,9.94,9.94,9.94
8.98,-1.09,3.97,7.49,7.14,7.14
8.98,-1.12,3.93,4.27,4.27,4.13
9.01,-1.15,3.90,2.66,2.10,1.89
9.04,-1.19,3.89,0.70,0.70,0.14
9.04,-1.23,3.87,-0.84,-0.84,-1.05
9.12,-1.27,3.87,-2.45,-2.45,-2.59
9.13,-1.31,3.85,-3.43,-3.57,-3.71
9.11,-1.34,3.84,-4.34,-4.62,-4.69
9.08,-1.35,3.86,-5.67,-5.67,-5.67
9.04,-1.34,3.89,-6.51,-6.58,-6.86
9.04,-1.35,3.88,-7.42,-7.63,-7.84
9.06,-1.35,3.88,-8.33,-8.33,-8.89
9.06,-1.41,3.80,-9.59,-9.59,-9.80
9.02,-1.42,3.72,-10.92,-10.92,-10.92
9.04,-1.45,3.70,-11.69,-11.69,-11.69
9.07,-1.43,3.67,-12.53,-12.53,-12.53
9.12,-1.41,3.62,-13.09,-13.23,-13.23
9.23,-1.48,3.56,-13.37,-13.37,-13.37
9.30,-1.53,3.54,-13.30,-13.23,-13.23
9.40,-1.58,3.48,-13.02,-13.02,-13.02
9.40,-1.64,3.45,-12.74,-12.39,-12.39
9.42,-1.64,3.43,-12.04,-12.04,-11.62
9.38,-1.62,3.46,-11.06,-11.06,-11.06
9.32,-1.57,3.48,-10.36,-10.36,-10.36
9.20,-1.53,3.52,-10.36,-10.36,-10.36
9.21,-1.52,3.56,-10.50,-10.50,-10.50
9.10,-1.47,3.58,-10.85,-10.78,-10.85
9.04,-1.41,3.61,-11.41,-11.41,-11.41
9.01,-1.32,3.67,-12.53,-12.60,-12.60
9.02,-1.28,3.66,-18.83,-18.83,-18.97
9.02,-1.25,3.61,-20.44,-20.44,-20.65
9.16,-1.30,3.66,-21.98,-21.98,-22.26
9.21,-1.37,3.63,-23.80,-23.80,-24.36
9.24,-1.43,3.60,-25.55,-25.55,-25.55
9.31,-1.45,3.58,-27.51,-27.51,-27.51
9.38,-1.42,3.57,-28.49,-28.91,-28.91
9.39,-1.40,3.51,-29.82,-29.82,-30.10
9.36,-1.43,3.47,-31.08,-31.08,-31.08
9.28,-1.48,3.52,-34.16,-34.23,-34.23
9.24,-1.49,3.50,-35.28,-35.49,-35.63
9.15,-1.49,3.51,-36.54,-36.54,-36.75
9.13,-1.53,3.52,-37.52,-37.38,-37.38
9.12,-1.51,3.59,-38.50,-38.50,-38.64
9.09,-1.53,3.61,-39.20,-39.41,-39.48
9.03,-1.55,3.64,-40.60,-40.60,-40.60
8.97,-1.52,3.63,-41.79,-41.93,-41.93
8.91,-1.48,3.63,-42.77,-43.19,-43.19
8.90,-1.48,3.68,-44.03,-44.66,-44.66
8.90,-1.46,3.68,-45.71,-45.92,-46.20
8.92,-1.45,3.68,-47.25,-47.53,-47.53
9.03,-1.47,3.78,-49.21,-49.42,-49.42
9.13,-1.48,3.84,-51.66,-51.66,-51.87
9.28,-1.51,3.92,-53.48,-53.48,-53.76
9.35,-1.54,3.98,-56.56,-56.56,-56.56
9.37,-1.52,3.99,-58.52,-59.15,-59.15
9.32,-1.50,3.98,-61.32,-61.32,-62.09
9.30,-1.45,3.96,-64.33,-64.33,-64.33
9.24,-1.37,3.85,-68.46,-68.46,-68.46
9.19,-1.29,3.65,-75.32,-75.32,-75.74
9.23,-1.24,3.44,-82.39,-82.39,-82.81
9.28,-1.27,3.37,-85.19,-85.19,-85.19
9.38,-1.34,3.30,-87.08,-87.57,-87.57
9.45,-1.40,3.23,-89.32,-89.32,-89.32
9.47,-1.49,3.18,-90.93,-90.93,-90.93
9.49,-1.57,3.08,-92.26,-92.26,-92.26
9.53,-1.62,3.02,-93.03,-93.10,-93.10
9.50,-1.70,3.00,-93.38,-93.52,-93.52
9.51,-1.79,2.97,-93.31,-93.31,-93.17
9.48,-1.89,2.95,-92.61,-92.61,-92.47
9.38,-1.93,2.95,-91.98,-91.63,-91.49
9.27,-1.97,2.97,-90.86,-90.86,-90.30
9.13,-2.02,3.01,-89.11,-89.11,-88.90
9.04,-2.01,3.08,-88.13,-87.92,-87.92
8.94,-2.00,3.13,-87.22,-87.22,-87.15
8.86,-1.99,3.15,-86.52,-86.45,-86.45
8.81,-2.01,3.13,-85.75,-85.75,-85.61
8.77,-1.99,3.12,-85.26,-85.19,-84.98
8.78,-2.00,3.08,-84.63,-84.42,-84.42
8.88,-2.07,3.03,-83.02,-83.02,-82.88
9.02,-2.17,2.95,-81.62,-81.62,-81.62
9.15,-2.29,2.90,-79.38,-78.75,-78.75
9.30,-2.41,2.86,-77.00,-76.65,-75.88
9.45,-2.49,2.78,-73.22,-72.73,-72.73
9.48,-2.60,2.66,-69.02,-68.53,-68.53
9.56,-2.69,2.66,-63.84,-63.84,-63.28
9.59,-2.79,2.59,-59.78,-59.78,-59.15
9.51,-2.87,2.57,-54.74,-54.74,-54.04
9.41,-2.99,2.61,-47.74,-47.74,-47.74
9.29,-3.04,2.63,-42.56,-42.56,-42.56
9.22,-3.09,2.73,-34.79,-34.79,-34.79
9.05,-3.08,2.77,-30.17,-28.49,-28.49
8.93,-3.13,2.84,-22.75,-22.75,-22.75
8.84,-3.15,2.88,-16.73,-14.21,-14.21
8.68,-3.19,2.96,-9.66,-8.82,-7.00
8.61,-3.22,3.00,-2.45,-1.40,-1.40
8.60,-3.21,3.11,6.44,7.35,7.35
8.62,-3.18,3.15,11.69,14.07,14.07
8.64,-3.16,3.19,18.20,18.90,20.58
8.68,-3.13,3.19,24.43,25.13,25.13
8.89,-3.01,3.13,36.75,36.75,37.24
9.04,-2.96,3.13,41.30,41.30,41.86
9.13,-2.90,3.13,44.94,45.36,45.36
9.22,-2.83,3.13,49.28,49.28,49.70
9.34,-2.52,3.09,56.42,56.42,56.42
9.38,-2.42,3.09,57.89,57.89,57.89
9.38,-2.19,3.06,59.08,59.08,59.01
9.27,-2.11,3.07,59.08,59.08,59.08
9.15,-2.03,3.08,58.73,58.73,58.73
9.13,-1.96,3.07,57.75,57.75,57.75
9.20,-1.98,3.06,57.19,57.05,57.05
9.10,-2.01,2.90,56.56,56.56,56.28
8.91,-1.94,2.84,55.30,55.09,55.09
8.81,-1.84,2.80,53.13,53.13,52.92
8.81,-1.77,2.70,51.73,51.31,51.17
8.83,-1.72,2.57,49.98,49.98,49.21
8.89,-1.67,2.48,48.16,48.16,47.88
9.34,-1.75,2.10,45.01,45.01,45.01
9.83,-1.86,1.90,44.45,44.45,44.38
10.27,-1.95,1.68,44.38,44.17,44.17
10.35,-1.97,1.53,43.61,43.61,43.19
10.51,-1.92,1.50,42.49,42.49,42.00
10.57,-1.91,1.39,41.37,41.37,41.30
10.63,-1.92,1.29,40.81,40.81,40.67
10.48,-1.91,1.11,40.88,40.88,40.95
10.29,-1.91,0.97,41.58,41.58,41.65
10.03,-1.87,0.91,42.14,42.14,42.35
9.77,-1.79,0.80,43.12,43.12,43.12
9.60,-1.75,0.75,43.82,43.82,43.82
9.54,-1.79,0.65,44.17,44.17,44.17
9.64,-1.84,0.51,44.45,44.45,44.31
9.65,-1.83,0.46,44.38,44.38,44.38
9.82,-1.87,0.41,43.26,43.12,43.12
9.85,-1.99,0.16,41.30,41.16,41.16
10.04,-2.12,-0.06,38.92,38.92,38.92
10.14,-2.40,-0.35,35.56,34.02,34.02
10.22,-2.58,-0.56,30.94,30.31,28.91
10.38,-2.71,-1.06,24.43,24.43,23.87
10.38,-3.00,-1.64,20.02,20.02,19.53
10.38,-3.24,-2.41,16.17,16.17,16.17
10.36,-3.58,-2.86,14.28,14.28,14.28
10.74,-3.86,-3.69,12.67,12.67,12.60
10.95,-4.13,-4.17,11.90,11.41,11.27
11.07,-4.21,-4.69,9.80,9.80,9.38
11.19,-4.45,-5.44,5.04,5.04,4.62
11.25,-4.63,-5.98,0.91,0.91,0.35
10.81,-4.86,-6.24,-2.87,-2.87,-3.57
10.36,-5.17,-6.58,-6.93,-6.93,-7.28
9.80,-5.32,-6.91,-12.04,-12.04,-12.04
8.83,-5.48,-7.04,-14.77,-14.77,-14.91
8.03,-5.68,-7.26,-15.96,-15.96,-15.96
7.21,-5.84,-7.43,-16.38,-16.38,-16.38
6.21,-5.96,-7.44,-16.66,-16.66,-16.66
5.09,-6.02,-7.42,-16.45,-16.17,-16.17
4.63,-6.24,-7.59,-14.14,-14.14,-13.86
4.37,-6.31,-7.85,-8.82,-8.82,-8.82
3.90,-6.22,-8.02,11.90,11.90,12.95
3.49,-6.07,-7.90,19.88,19.88,20.72
2.64,-5.69,-7.49,32.13,32.13,33.04
2.03,-5.66,-7.10,40.74,40.74,40.74
0.91,-5.57,-6.75,46.83,46.83,46.83
0.22,-5.32,-6.27,54.11,54.11,54.11
-0.40,-5.16,-5.96,59.43,59.43,59.43
-0.74,-5.16,-5.85,63.35,63.35,63.98
-1.46,-5.21,-5.67,68.53,68.53,69.16
-2.23,-4.97,-5.35,72.45,72.45,72.87
-2.63,-4.77,-5.18,75.04,75.04,75.04
-3.10,-4.80,-4.97,77.21,77.21,77.77
-3.90,-4.83,-4.70,80.15,80.15,80.15
-4.51,-4.65,-4.53,80.99,80.99,80.99
-4.90,-4.27,-4.35,79.38,79.38,79.38
-5.34,-4.07,-4.19,77.42,76.79,76.79
-5.94,-4.05,-3.90,74.90,74.90,74.90
-6.56,-4.09,-3.78,74.20,74.27,74.27
-6.93,-4.20,-3.57,74.76,74.76,75.25
-7.26,-4.24,-3.21,76.86,77.21,77.21
-8.23,-4.12,-2.56,81.97,81.97,82.11
-8.23,-3.83,-2.26,81.34,81.34,81.34
-8.34,-3.87,-2.10,79.80,79.80,79.52
-8.21,-3.79,-1.92,77.77,77.77,77.56
-8.14,-3.60,-1.66,73.08,73.08,73.08
-7.97,-3.42,-1.46,68.67,66.99,66.99
-7.88,-3.35,-1.21,60.55,60.55,60.55
-7.98,-3.28,-0.92,53.41,53.41,53.41
-7.96,-3.12,-0.70,46.20,46.20,46.20
-8.00,-3.10,-0.55,37.10,37.10,34.93
-8.16,-3.12,-0.28,28.63,28.63,26.67
-8.69,-3.24,-0.02,21.21,21.21,21.21
-9.15,-3.11,0.25,12.88,12.04,12.04
-9.15,-3.07,0.36,6.37,6.37,5.46
-8.90,-3.22,0.41,-1.96,-1.96,-1.96
-8.87,-3.29,0.42,-6.86,-6.86,-6.86
-8.95,-3.49,0.50,-10.08,-10.08,-10.08
-9.02,-3.71,0.52,-11.69,-12.11,-12.11
-8.79,-3.89,0.49,-13.16,-13.16,-13.16
-8.63,-4.13,0.50,-14.21,-14.21,-14.21
-8.72,-4.31,0.54,-13.58,-13.58,-13.58
-8.75,-4.44,0.59,-11.62,-11.62,-11.62
-8.71,-4.49,0.67,-9.80,-9.17,-9.17
-8.60,-4.41,0.73,-7.63,-7.63,-7.14
-8.54,-4.35,0.77,-4.97,-4.97,-4.97
-8.45,-4.29,0.78,-3.29,-3.29,-2.94
-8.39,-4.18,0.78,-0.70,-0.70,-0.70
-8.51,-4.06,0.88,0.21,0.21,0.49
-8.64,-3.88,0.90,0.63,0.63,0.63
-8.65,-3.80,0.86,-0.14,-0.14,-0.14
-8.78,-3.83,0.92,-0.98,-0.91,-0.91
-9.06,-3.82,0.91,-1.40,-1.75,-1.75
-9.21,-3.94,0.89,-2.24,-2.24,-2.24
-9.35,-4.12,0.88,-2.66,-2.66,-2.66
-9.36,-4.27,0.82,-2.24,-2.24,-2.17
-9.27,-4.41,0.74,-1.68,-1.40,-1.40
-9.15,-4.54,0.68,-0.56,-0.56,-0.21
-8.93,-4.69,0.68,0.91,0.91,1.19
-8.70,-4.84,0.70,2.87,3.29,3.29
-8.52,-4.94,0.79,4.83,4.83,5.32
-8.59,-5.04,1.01,9.10,9.10,9.31
-8.48,-5.04,1.05,10.71,10.71,10.71
-8.37,-5.00,1.12,11.20,11.48,11.48
-8.27,-4.99,1.20,12.11,12.11,12.25
-8.33,-4.96,1.33,12.46,12.46,12.46
-8.29,-4.81,1.36,11.83,11.34,11.34
-8.29,-4.73,1.45,9.73,9.17,9.17
-8.26,-4.67,1.49,7.21,6.65,6.65
-8.25,-4.67,1.56,4.62,4.27,4.27
-8.33,-4.67,1.64,2.17,1.61,1.26
-8.38,-4.79,1.69,-0.63,-0.84,-0.84
-8.31,-4.86,1.72,-2.87,-2.87,-2.94
-8.36,-4.92,1.72,-3.99,-3.99,-4.48
-8.37,-4.99,1.79,-5.32,-5.32,-5.81
-8.37,-5.10,1.80,-6.30,-6.30,-6.44
-8.33,-5.21,1.77,-6.44,-6.44,-6.44
-8.34,-5.27,1.75,-5.88,-5.88,-5.88
-8.40,-5.19,1.74,-5.60,-5.60,-5.60
-7.97,-5.71,1.44,-4.48,-4.48,-3.85
-8.09,-6.44,1.34,2.10,2.10,3.15
-8.35,-6.14,1.43,10.85,10.85,10.85
-8.67,-5.14,1.47,11.69,11.69,11.69
-8.89,-4.64,1.46,7.70,7.70,7.70
-8.87,-4.63,1.49,5.04,3.85,3.85
-8.60,-4.35,1.56,-0.56,-2.31,-2.31
-8.72,-3.99,1.68,-8.68,-8.68,-10.71
-9.12,-4.47,1.53,-15.12,-15.12,-15.12
-8.75,-4.84,1.49,-18.34,-18.55,-18.55
-8.35,-5.20,1.45,-17.99,-17.99,-17.64
-8.26,-4.84,1.60,-17.01,-17.01,-17.01
-8.39,-4.34,1.73,-18.90,-19.11,-19.11
-8.48,-3.92,1.84,-24.57,-24.57,-25.06
-8.56,-4.09,1.79,-27.37,-27.86,-28.07
-8.42,-4.35,1.84,-28.21,-28.21,-28.21
-8.47,-4.16,1.87,-27.30,-27.30,-27.30
-8.72,-4.44,1.79,-24.71,-24.71,-24.71
-9.21,-3.59,1.99,-19.60,-19.60,-19.11
-9.45,-3.51,1.99,-16.38,-16.03,-16.03
-9.34,-3.35,2.05,-12.32,-12.32,-12.04
-9.50,-3.03,2.02,-10.43,-9.59,-9.31
-9.54,-2.72,2.01,-7.35,-7.35,-6.58
-9.37,-2.18,1.92,-5.88,-5.88,-5.88
-9.15,-2.00,1.95,-4.97,-4.97,-4.97
-9.20,-1.48,1.97,-6.09,-6.09,-6.09
-9.18,-1.09,1.93,-8.05,-8.82,-8.82
-9.05,-1.03,1.75,-10.57,-10.57,-10.57
-9.42,-0.88,1.96,-11.76,-11.76,-11.76
-9.17,0.14,1.90,-15.96,-15.96,-15.96
-9.73,-0.05,2.12,-22.26,-22.54,-22.54
-9.92,-0.61,2.05,-22.75,-23.10,-23.10
-9.22,0.01,2.15,-24.50,-24.92,-25.97
-9.28,-0.33,2.10,-28.56,-28.77,-28.77
-9.16,-0.77,1.90,-28.49,-28.49,-28.28
-9.19,-0.64,1.89,-24.50,-24.50,-24.50
-9.70,-0.45,1.97,-23.45,-23.45,-23.45
-10.28,-0.48,1.81,-21.28,-21.14,-21.14
-10.22,-0.18,1.81,-20.72,-20.72,-20.72
-10.28,0.49,1.55,-23.66,-23.66,-23.73
-10.22,0.47,1.42,-24.15,-24.15,-24.08
-10.13,0.52,1.35,-23.66,-23.66,-23.66
-10.83,0.38,1.34,-22.19,-21.63,-21.63
-10.04,0.34,1.29,-16.80,-16.80,-16.03
-9.69,0.22,1.42,-8.82,-8.82,-7.84
-9.67,0.22,1.62,-0.35,-0.35,-0.35
-9.74,0.35,1.72,7.42,7.42,8.12
-9.85,0.87,2.04,12.60,12.60,12.60
-9.80,0.90,1.97,12.60,12.18,12.18
-9.48,1.14,2.07,9.80,9.80,8.82
-9.39,1.07,1.92,5.53,5.53,4.83
-9.34,0.74,1.79,2.03,2.03,2.03
-9.26,0.74,1.97,-1.40,-1.40,-1.40
-9.08,1.04,2.10,-6.23,-6.23,-7.00
-9.16,0.75,2.18,-13.79,-13.79,-13.79
-9.43,0.45,2.30,-19.88,-19.88,-19.88
-9.49,0.24,2.48,-24.15,-24.50,-24.50
-9.17,-0.24,2.63,-25.13,-25.13,-25.13
-8.66,-0.38,2.69,-20.37,-20.37,-20.37
-8.22,-0.77,2.72,-10.50,-10.50,-10.50
-8.35,-0.81,2.39,-0.42,3.08,3.08
-8.84,-0.62,2.30,13.86,13.86,17.36
-9.64,0.10,2.20,29.75,29.75,29.75
-10.89,2.44,1.42,28.49,28.49,27.51
-10.62,2.17,0.98,12.74,12.74,12.04
-10.24,2.06,1.00,6.79,6.79,6.79
-10.16,2.21,0.75,2.52,1.19,1.19
-10.16,2.27,0.95,-2.38,-2.94,-2.94
-9.69,1.70,1.00,-1.75,-1.47,-1.47
-9.33,1.37,1.09,3.29,4.13,4.13
-9.04,1.37,1.30,8.47,9.45,9.45
-9.02,1.60,1.52,11.48,11.48,12.32
-8.94,1.52,1.65,14.49,14.49,14.49
-8.66,1.49,1.74,17.22,17.22,17.22
-8.74,1.81,1.86,18.41,18.20,18.20
-8.93,2.45,1.99,16.38,14.21,14.21
-9.08,2.99,2.13,6.37,6.37,6.37
-8.97,3.16,2.10,-7.07,-7.07,-7.07
-8.79,3.01,1.96,-16.10,-16.10,-16.10
-8.92,2.89,1.85,-21.14,-22.33,-22.33
-9.00,2.70,1.71,-24.64,-24.64,-25.06
-9.06,2.75,1.56,-25.20,-25.06,-25.06
-9.04,2.68,1.44,-23.80,-23.80,-23.45
-9.00,2.64,1.42,-22.05,-22.05,-22.05
-9.17,2.67,1.47,-19.39,-19.39,-19.39
-9.19,2.42,1.58,-14.70,-14.14,-14.14
-9.34,2.26,1.61,-10.64,-8.54,-8.54
-9.47,2.14,1.67,-3.71,-3.71,-2.87
-9.45,1.92,1.64,5.53,5.53,5.53
-9.49,2.01,1.63,11.06,11.06,11.06
-9.63,2.16,1.58,15.61,15.61,15.61
-9.77,2.24,1.51,18.97,18.97,18.97
-9.89,2.37,1.40,20.16,20.51,20.51
-10.01,2.45,1.21,21.14,21.77,21.77
-9.84,2.32,1.09,22.54,22.75,23.17
-9.78,2.35,1.00,24.15,24.50,24.50
-9.61,2.41,0.93,26.18,27.44,27.44
-9.10,2.37,0.87,29.96,29.96,29.96
-8.71,2.46,0.86,32.55,32.55,33.04
-8.63,2.51,0.95,34.58,34.58,34.58
-8.74,2.63,1.02,34.79,34.79,34.79
-8.92,2.79,1.07,33.53,33.25,33.25
-9.08,2.90,1.13,30.10,29.54,29.54
-9.32,2.96,1.20,26.53,24.64,24.64
-9.49,2.99,1.19,20.23,20.23,20.23
-9.66,3.04,1.18,13.16,13.16,13.16
-9.93,3.04,1.16,8.89,7.56,7.56
-10.11,2.99,1.17,3.71,3.71,2.45
-10.02,2.81,1.03,-5.53,-5.53,-5.95
-9.68,2.67,0.97,-8.19,-8.19,-8.19
-9.54,2.52,0.97,-9.24,-9.31,-9.31
-9.20,2.27,0.88,-9.80,-9.80,-9.80
-9.08,2.19,0.85,-9.59,-9.52,-9.52
-9.06,2.12,0.85,-9.10,-9.10,-9.10
-9.11,2.09,0.84,-8.12,-8.12,-8.12
-9.19,2.10,0.82,-7.56,-7.56,-7.56
-9.36,2.09,0.80,-6.93,-6.86,-6.86
-9.44,2.12,0.81,-6.09,-6.02,-6.02
-9.53,2.16,0.82,-5.46,-5.04,-5.04
-9.70,2.20,0.82,-4.34,-4.06,-3.92
-9.73,2.18,0.79,-3.22,-2.94,-2.66
-9.68,2.13,0.76,-0.91,-0.91,-0.91
-9.62,2.12,0.73,1.61,1.61,1.61
-9.60,2.17,0.73,4.48,4.69,4.69
-9.56,2.15,0.76,6.93,7.14,7.14
-9.48,2.16,0.76,8.54,9.24,9.24
-9.37,2.10,0.77,10.57,10.99,11.62
-9.21,1.99,0.79,13.30,13.72,13.72
-9.06,1.94,0.79,17.22,17.57,17.57
-9.32,2.08,1.02,21.56,21.56,21.56
-9.45,2.11,1.01,21.28,21.28,21.28
-9.58,2.17,1.04,20.58,20.44,20.44
-9.58,2.19,0.96,19.74,19.74,19.60
-9.74,2.23,0.91,17.99,17.99,17.78
-9.86,2.20,0.84,16.17,16.17,15.96
-9.95,2.13,0.74,14.98,14.56,14.42
-10.10,2.01,0.67,13.16,12.88,12.88
-10.14,1.85,0.50,11.76,11.76,11.83
-10.19,1.74,0.40,11.48,11.48,11.48
-10.24,1.64,0.32,10.85,10.85,10.85
-10.18,1.59,0.28,10.64,10.57,10.57
-10.11,1.53,0.18,10.43,10.57,10.57
-9.97,1.45,0.16,10.64,10.78,10.78
-9.86,1.40,0.13,10.99,10.99,10.99
-9.75,1.43,0.09,10.78,10.78,10.64
-9.55,1.50,0.07,10.15,10.15,9.94
-9.39,1.61,0.07,8.75,8.75,8.75
-9.18,1.68,0.05,7.42,7.42,7.42
-9.13,1.79,0.08,5.32,5.32,5.32
-9.16,1.89,0.11,3.36,3.22,3.22
-9.24,2.00,0.17,1.33,1.33,1.33
-9.27,2.03,0.22,-0.84,-1.05,-1.05
-9.33,2.09,0.21,-2.45,-2.45,-2.73
-9.46,2.05,0.24,-3.50,-3.71,-3.78
-9.47,1.98,0.22,-4.41,-4.41,-4.69
-9.52,1.85,0.22,-5.11,-5.25,-5.25
-9.64,1.70,0.25,-5.53,-5.53,-5.46
-9.79,1.58,0.27,-5.32,-5.32,-5.32
-9.98,1.43,0.28,-4.97,-4.97,-4.90
-10.05,1.16,0.27,-3.99,-3.99,-3.71
-10.07,1.01,0.25,-2.31,-2.31,-2.03
-10.08,0.84,0.22,-0.42,-0.21,-0.21
-10.07,0.75,0.16,4.48,4.83,5.04
-10.01,0.88,0.13,6.37,6.37,6.44
-9.85,0.87,0.12,7.84,7.84,7.84
-9.84,0.94,0.10,8.68,8.68,8.68
-9.88,1.02,0.07,9.17,9.17,9.17
-9.90,1.12,0.08,8.82,8.54,8.54
-9.84,1.21,0.03,7.35,7.35,7.35
-9.86,1.25,0.03,5.81,5.39,5.39
-9.90,1.29,0.00,4.27,4.27,3.85
-9.89,1.31,0.01,2.73,2.45,2.45
-9.91,1.30,-0.00,1.40,1.33,1.33
-9.84,1.33,-0.02,0.35,0.35,0.35
-9.75,1.27,0.00,-0.42,-0.49,-0.49
-9.78,1.23,-0.02,-0.91,-0.91,-0.91
-9.83,1.26,-0.01,-0.77,-0.77,-0.77
-9.85,1.27,0.01,-0.63,-0.63,-0.70
-9.83,1.28,0.05,-0.84,-0.84,-0.84
-9.85,1.34,0.05,-0.77,-0.77,-0.77
-9.76,1.36,0.07,-0.42,-0.42,-0.42
-9.68,1.46,0.14,-0.21,-0.21,-0.21
-9.71,1.53,0.16,-0.42,-0.49,-0.49
-9.68,1.55,0.16,-0.70,-0.63,-0.91
-9.65,1.51,0.14,-0.98,-1.05,-1.05
-9.65,1.48,0.18,-1.26,-1.26,-1.26
-9.65,1.47,0.18,-1.47,-1.47,-1.47
-9.67,1.50,0.21,-1.61,-1.61,-1.61
-9.64,1.45,0.23,-1.61,-1.61,-1.61
-9.66,1.43,0.23,-1.33,-1.33,-1.33
-9.65,1.43,0.28,-1.12,-1.12,-1.12
-9.65,1.45,0.34,-0.91,-0.84,-0.84
-9.59,1.44,0.36,-0.63,-0.42,-0.42
-9.59,1.48,0.39,-0.21,-0.21,-0.21
-9.66,1.51,0.44,-0.07,-0.07,-0.07
-9.67,1.53,0.44,-0.70,-0.63,-0.63
-9.69,1.55,0.44,-0.63,-0.70,-0.70
-9.70,1.52,0.44,-0.84,-0.84,-0.84
-9.68,1.51,0.41,-1.05,-1.05,-1.05
-9.69,1.49,0.45,-1.26,-1.26,-1.26
-9.71,1.40,0.47,-1.19,-1.12,-1.12
-9.71,1.39,0.47,-1.12,-1.12,-1.12
-9.75,1.39,0.45,-1.05,-1.05,-1.05
-9.72,1.37,0.44,-0.98,-0.98,-0.98
-9.71,1.32,0.44,-0.14,-0.14,-0.07
-9.82,1.33,0.44,-0.28,-0.28,-0.28
-9.85,1.37,0.46,-0.70,-0.70,-0.70
-9.89,1.42,0.47,-1.12,-1.19,-1.19
-9.84,1.40,0.53,-1.40,-1.40,-1.33
-9.78,1.38,0.53,-1.40,-1.40,-1.33
-9.72,1.41,0.56,-1.33,-1.33,-1.33
-9.76,1.36,0.58,-1.26,-1.26,-1.26
-9.77,1.38,0.62,-1.33,-1.33,-1.33
-9.75,1.36,0.65,-1.40,-1.40,-1.40
-9.71,1.35,0.67,-1.33,-1.33,-1.26
-9.73,1.37,0.77,-0.42,-0.42,-0.42
-9.78,1.43,0.77,-0.14,-0.14,-0.14
-9.74,1.45,0.74,0.07,0.07,0.07
-9.92,1.53,0.74,0.28,0.28,0.28
-10.07,1.57,0.77,0.14,0.14,0.14
-10.13,1.58,0.80,-0.14,-0.14,-0.14
-10.16,1.56,0.76,-0.56,-0.56,-0.63
-10.09,1.53,0.72,-0.91,-0.91,-0.91
-10.00,1.54,0.71,-2.10,-2.10,-2.10
-10.00,1.59,0.70,-3.01,-3.29,-3.29
-10.12,1.67,0.69,-4.48,-4.48,-4.90
-10.31,1.79,0.72,-6.58,-6.58,-6.58
-10.53,1.91,0.77,-9.24,-9.24,-9.24
-10.82,1.97,0.84,-11.41,-11.41,-11.41
-11.06,1.96,0.94,-12.25,-12.74,-12.74
-11.15,1.90,0.93,-13.44,-13.44,-13.44
-11.11,1.81,0.89,-14.21,-14.21,-14.21
-11.12,1.69,0.91,-14.00,-14.00,-14.00
-11.11,1.65,0.79,-13.23,-13.23,-13.23
-11.01,1.67,0.59,-12.67,-12.53,-12.53
-10.79,1.52,0.45,-11.97,-11.97,-11.76
-10.60,1.31,0.35,-10.57,-10.57,-10.57
-10.52,1.09,-0.01,-8.75,-8.75,-8.75
-10.64,0.92,-0.19,-7.63,-7.49,-7.49
-10.68,0.61,-0.32,-6.16,-5.95,-5.95
-10.70,0.40,-0.53,-3.71,-3.71,-3.50
-10.88,0.25,-0.57,-2.31,-1.96,-1.75
-10.76,0.22,-0.71,-1.05,-1.05,-0.77
-10.68,0.30,-0.83,-0.70,-0.70,-0.56
-10.76,0.55,-0.90,-0.77,-0.84,-0.77
-10.62,0.72,-0.90,-0.98,-0.98,-0.91
-10.25,0.72,-0.85,-0.56,-0.56,-0.49
-10.01,0.75,-0.78,-0.07,-0.07,0.14
-9.65,0.77,-0.56,0.63,0.70,0.70
-9.60,0.81,-0.52,0.42,0.42,0.35
-9.47,0.79,-0.53,-0.21,-0.21,-0.14
-9.55,0.84,-0.35,-0.70,-0.84,-0.84
-9.31,0.74,-0.38,-0.84,-0.70,-0.70
-9.23,0.63,-0.50,0.07,0.28,0.56
-8.80,0.31,-0.58,2.17,2.17,2.17
-8.57,0.05,-0.63,5.74,5.74,5.74
-8.85,-0.11,-0.54,11.76,12.67,12.67
-8.90,-0.21,-0.61,21.00,21.00,22.12
-8.37,-0.38,-0.67,28.28,28.28,29.47
-7.96,-0.42,-0.75,39.69,39.69,39.69
-7.80,-0.36,-0.99,49.07,49.07,49.07
-8.02,-0.12,-1.18,57.40,57.40,57.40
-7.95,-0.06,-1.28,62.93,64.68,64.68
-8.40,0.23,-1.26,69.65,69.65,71.19
-8.53,0.46,-1.70,76.23,76.23,76.23
-8.00,0.47,-2.21,78.96,79.24,79.24
-7.22,0.18,-2.60,80.57,80.64,80.64
-6.65,-0.06,-3.18,78.61,78.61,78.19
-6.36,-0.08,-3.53,74.62,74.62,74.62
-6.21,-0.05,-3.96,66.43,65.31,65.31
-7.00,0.51,-4.23,56.00,56.00,54.60
-7.72,0.73,-4.47,38.29,38.29,38.29
-7.84,0.72,-4.64,23.94,23.94,23.94
-9.02,1.15,-4.68,5.95,5.95,5.95
-9.58,1.20,-4.64,-17.15,-17.15,-17.15
-9.52,1.11,-4.77,-30.03,-34.02,-34.02
-9.93,1.11,-5.01,-47.04,-47.04,-48.65
-10.07,1.00,-5.29,-60.34,-60.34,-60.34
-8.86,0.22,-5.37,-64.47,-64.47,-64.47
-7.88,-0.48,-4.87,-51.17,-48.79,-48.79
-7.38,-0.83,-4.41,-42.70,-41.65,-39.27
-6.96,-1.03,-3.92,-33.74,-32.76,-32.76
-7.22,-0.63,-3.56,-25.06,-25.06,-25.06
-8.02,0.44,-3.07,-12.95,-12.95,-13.09
-8.28,0.62,-3.09,-15.82,-15.82,-15.82
-8.76,0.68,-3.00,-19.04,-19.04,-19.04
-8.86,0.64,-2.97,-21.35,-21.35,-21.35
-8.74,0.23,-3.01,-24.22,-24.22,-24.22
-8.70,0.19,-3.01,-24.64,-24.64,-24.64
-8.71,0.21,-2.95,-24.08,-24.08,-24.08
-8.71,0.23,-2.68,-22.12,-22.12,-22.12
-8.93,0.42,-2.64,-21.21,-21.21,-21.21
-8.59,0.32,-2.48,-19.95,-19.95,-19.95
-8.43,0.33,-2.34,-18.83,-18.69,-18.69
-8.81,0.67,-2.45,-18.27,-18.13,-18.13
-8.86,0.67,-2.42,-17.78,-17.78,-17.64
-8.70,0.43,-2.40,-17.01,-17.01,-16.87
-8.63,0.07,-2.57,-15.40,-15.40,-15.12
-9.14,-0.06,-2.64,-13.65,-13.65,-13.65
-9.69,-0.17,-2.90,-13.16,-13.16,-13.16
-10.24,0.03,-3.03,-13.93,-14.28,-14.28
-10.02,0.11,-3.09,-15.96,-16.17,-16.17
-9.38,-0.22,-3.21,-16.24,-16.24,-16.17
-9.53,-0.18,-3.19,-13.72,-13.72,-13.23
-10.02,-0.19,-3.03,-9.59,-9.59,-9.17
-10.03,-0.29,-2.82,-6.16,-6.16,-5.67
-10.10,-0.39,-2.43,-0.77,-0.77,-0.21
-10.46,-0.45,-2.25,2.73,2.73,2.73
-10.73,-0.56,-2.16,6.86,6.86,6.86
-10.98,-0.64,-1.95,11.76,12.39,12.39
-10.91,-0.61,-1.87,14.91,16.31,16.31
-11.00,-0.51,-1.66,18.13,18.48,18.90
-11.49,-0.24,-1.67,19.67,19.81,19.81
-11.33,0.34,-1.64,18.48,18.06,17.85
-11.51,0.46,-1.74,15.40,15.19,15.19
-11.52,0.45,-1.79,12.88,12.88,12.25
-11.98,0.27,-1.80,7.28,6.93,6.93
-12.43,0.03,-1.81,5.32,5.32,5.32
-12.58,-0.33,-1.75,3.78,3.78,3.64
-12.47,-0.60,-1.66,3.50,3.50,3.50
-12.10,-0.89,-1.56,3.85,3.85,4.13
-11.93,-1.00,-1.36,4.76,4.76,4.76
-11.65,-0.87,-1.13,5.39,5.39,5.39
-11.39,-0.59,-0.91,4.55,4.55,4.13
-11.05,-0.33,-0.70,2.38,2.38,2.38
-10.61,-0.12,-0.54,0.07,0.07,-17.85
-10.27,0.01,-0.16,-2.24,-2.24,-2.24
-10.40,0.24,0.18,-3.08,-3.29,-3.29
-10.58,0.37,0.65,-3.71,-3.71,-3.71
-10.68,0.37,0.79,-4.20,-4.20,-4.20
-10.69,0.31,0.77,-4.69,-4.69,-4.69
-10.72,0.21,0.77,-5.32,-5.32,-5.32
-10.75,0.12,0.83,-5.46,-5.46,-5.46
-10.84,0.07,0.71,-5.04,-5.04,-5.04
-10.88,-0.04,0.50,-4.62,-4.62,-4.62
-10.93,-0.16,0.10,-4.06,-4.06,-4.06
-10.88,-0.26,-0.31,-4.27,-4.27,-4.27
-10.62,-0.47,-0.76,-4.97,-5.18,-5.18
-10.46,-0.66,-1.01,-6.23,-6.23,-6.44
-10.43,-0.92,-1.17,-6.79,-6.86,-6.72
-10.78,-1.07,-1.42,-6.79,-6.72,-6.79
-10.32,-1.22,-1.84,-7.42,-7.42,-7.42
-10.12,-1.28,-1.82,-5.95,-5.46,-5.46
-9.59,-1.34,-1.81,-2.73,-2.73,-1.68
-9.14,-1.41,-1.58,3.29,3.29,3.29
-9.63,-1.37,-1.34,9.45,9.45,9.45
-9.63,-1.43,-1.17,14.42,15.96,15.96
-9.50,-1.38,-1.01,20.86,20.86,22.54
-9.07,-1.46,-0.94,27.86,27.86,27.86
-8.39,-1.62,-1.04,37.94,37.94,37.94
-7.97,-1.70,-1.08,44.73,47.11,47.11
-7.79,-1.73,-1.02,71.26,54.60,57.33
-7.75,-1.72,-0.98,66.99,68.46,68.46
-7.69,-1.77,-0.90,77.91,77.91,81.69
-7.55,-1.88,-0.79,90.37,90.37,90.37
-7.69,-1.73,-0.65,99.47,99.47,100.45
-8.21,-1.35,-0.40,106.33,106.33,107.66
-8.33,-0.87,-0.30,110.53,110.53,110.53
-7.84,-0.47,-0.53,110.81,110.81,110.81
-7.43,-0.18,-0.63,107.87,107.87,107.17
-7.42,0.14,-0.73,97.93,97.93,97.93
-7.42,0.22,-0.83,88.13,88.13,88.13
-7.40,0.16,-0.97,76.72,76.72,76.72
-7.40,0.04,-0.95,58.24,58.24,58.24
-7.72,0.21,-0.95,45.78,43.75,43.75
-8.04,0.50,-0.97,28.28,28.28,25.97
-8.21,0.76,-1.05,9.66,7.21,7.21
-8.71,1.21,-0.96,-15.05,-15.05,-17.71
-9.38,1.57,-1.00,-30.52,-35.70,-38.29
-9.56,1.15,-1.48,-71.19,-73.22,-73.22
-9.70,0.80,-1.80,-85.33,-86.66,-86.66
-9.38,0.11,-1.99,-95.62,-95.62,-96.11
-9.14,-0.57,-2.08,-97.93,-97.93,-98.00
-7.01,-2.58,-2.31,-76.58,-76.58,-76.58
-7.16,-2.53,-2.24,-60.97,-60.97,-60.97
-6.97,-2.57,-2.23,-51.52,-48.30,-48.30
-6.75,-2.71,-2.24,-39.76,-39.76,-37.24
-7.65,-2.21,-2.21,-30.31,-30.31,-30.31
-8.34,-1.60,-2.16,-21.91,-21.91,-21.91
-8.65,-1.40,-2.07,-18.20,-18.20,-18.20
-8.81,-1.30,-2.05,-17.36,-17.36,-17.43
-9.23,-1.02,-2.07,-18.69,-18.69,-18.69
-9.37,-0.94,-2.04,-20.93,-20.93,-20.93
-9.48,-0.97,-2.10,-22.61,-23.17,-23.17
-9.44,-1.10,-2.09,-24.57,-24.57,-25.13
-9.35,-1.25,-1.98,-25.83,-25.83,-25.83
-9.69,-1.24,-2.00,-25.97,-25.97,-25.97
-10.11,-1.22,-2.01,-25.90,-25.83,-25.83
-9.77,-1.53,-1.85,-24.99,-24.50,-24.50
-9.77,-1.54,-1.71,-22.61,-22.61,-21.84
-9.41,-1.55,-1.55,-17.43,-17.43,-17.43
-9.54,-1.19,-1.60,-15.19,-15.19,-15.19
-9.36,-1.12,-1.53,-13.23,-13.23,-13.23
-9.46,-1.10,-1.43,-11.06,-11.06,-11.06
-10.26,-1.19,-1.41,-9.31,-8.75,-8.75
-10.49,-1.24,-1.44,-6.44,-6.44,-5.60
-10.21,-1.27,-1.40,-1.68,-1.68,-1.68
-10.64,-1.33,-1.54,4.69,5.46,5.46
-10.64,-1.34,-1.53,7.42,8.12,8.12
-10.68,-1.29,-1.65,10.36,10.36,10.36
-10.78,-1.14,-1.87,12.88,12.88,12.88
-10.46,-0.90,-1.95,13.23,13.23,13.16
-10.30,-0.76,-2.02,12.39,12.39,12.39
-10.51,-0.68,-2.20,11.76,11.76,11.76
-10.99,-0.78,-2.12,10.99,10.85,10.85
-10.92,-0.94,-2.12,10.64,10.64,10.64
-10.52,-1.10,-2.16,10.85,10.85,10.85
-10.58,-1.18,-2.13,10.99,10.99,10.99
-10.76,-1.51,-2.12,10.36,10.36,10.36
-10.74,-1.59,-2.10,10.15,10.15,10.15
-10.61,-1.60,-2.02,10.36,10.36,10.36
-10.66,-1.57,-2.00,10.78,10.78,10.78
-10.76,-1.55,-2.01,10.78,10.78,10.78
-10.85,-1.37,-2.05,9.52,9.52,9.31
-11.24,-1.21,-2.08,8.19,7.70,7.70
-11.56,-1.10,-2.11,5.53,5.18,5.18
-11.78,-1.16,-2.08,-4.20,-4.20,-4.20
-11.47,-1.25,-2.00,-6.79,-7.14,-7.14
-11.12,-1.26,-1.85,-10.64,-10.64,-11.06
-10.88,-1.32,-1.69,-13.65,-13.65,-14.00
-10.71,-1.22,-1.65,-16.66,-16.66,-17.08
-10.40,-1.11,-1.61,-20.23,-20.23,-20.72
-10.24,-0.99,-1.58,-24.08,-24.08,-24.57
-10.16,-0.91,-1.56,-27.72,-27.72,-28.00
-10.33,-0.75,-1.58,-30.73,-30.73,-31.08
-10.78,-0.51,-1.65,-33.88,-33.88,-34.44
-11.32,-0.34,-1.70,-37.24,-37.24,-37.24
-11.65,-0.33,-1.66,-41.44,-41.86,-41.86
-11.81,-0.32,-1.68,-44.38,-44.38,-44.73
-11.72,-0.27,-1.61,-46.48,-46.48,-46.62
-11.66,-0.21,-1.59,-47.81,-47.81,-47.88
-11.61,-0.04,-1.66,-48.79,-48.79,-48.79
-11.81,0.10,-1.72,-49.42,-49.42,-49.42
-12.08,0.27,-1.83,-50.19,-50.19,-50.19
-11.89,0.29,-2.04,-51.03,-51.03,-51.17
-11.45,0.23,-2.23,-51.38,-51.38,-51.38
-11.04,0.22,-2.49,-50.89,-50.89,-50.89
-10.78,0.22,-2.61,-50.26,-49.98,-49.98
-10.90,0.45,-2.75,-49.28,-49.28,-49.21
-10.95,1.16,-2.53,-48.58,-48.58,-48.58
-10.62,1.09,-2.42,-47.39,-47.39,-47.39
-9.84,1.08,-2.60,-45.29,-45.29,-45.29
-9.36,1.04,-2.61,-42.70,-42.21,-42.21
-9.07,0.92,-2.39,-38.43,-37.94,-37.94
-9.24,0.91,-2.32,-35.14,-35.14,-34.65
-8.94,0.82,-2.17,-31.78,-31.78,-31.22
-8.47,0.74,-1.95,-26.74,-26.74,-26.74
-8.35,0.73,-1.72,-21.98,-21.98,-21.98
-7.92,0.67,-1.70,-16.17,-14.91,-14.91
-7.23,0.74,-1.56,-11.34,-10.22,-10.22
-6.77,0.82,-1.31,-7.21,-7.21,-7.21
-6.70,0.98,-0.87,-4.69,-4.41,-3.78
-6.84,1.06,-0.48,-1.40,-1.40,-1.05
-6.99,1.29,-0.29,1.40,1.40,1.40
-6.82,1.49,-0.14,2.59,2.87,2.87
-6.96,1.77,0.14,3.99,3.99,4.06
-7.34,2.24,0.37,3.85,3.85,3.78
-7.70,2.77,0.56,2.94,2.38,2.10
-7.88,3.24,0.81,-0.42,-0.42,-0.42
-7.90,3.59,1.17,-4.55,-4.90,-4.90
-7.80,3.74,1.34,-7.63,-7.84,-7.84
-7.51,3.86,1.40,-8.96,-9.31,-9.52
-7.35,4.10,1.55,-10.15,-10.43,-10.50
-7.24,4.34,1.66,-11.27,-11.27,-11.27
-6.81,4.42,1.79,-11.62,-11.69,-11.69
-6.50,4.56,1.80,-11.06,-10.85,-10.85
-6.73,4.71,1.80,-9.66,-9.59,-9.59
-7.02,4.91,1.81,-8.96,-8.61,-8.61
-7.41,5.31,1.93,-8.68,-8.61,-8.61
-7.59,5.68,1.98,-9.94,-10.08,-10.08
-7.98,5.92,1.84,-12.25,-12.25,-12.53
-9.75,6.19,1.86,-15.33,-15.33,-15.68
-8.83,6.25,1.76,-17.78,-17.78,-18.13
-8.37,5.84,1.34,-18.90,-18.90,-18.97
-8.21,5.70,1.02,-18.27,-18.27,-18.27
-8.05,5.36,0.81,-16.80,-16.80,-16.80
-8.02,5.17,0.64,-14.35,-14.35,-13.23
-8.12,5.01,0.36,-8.47,-8.47,-8.47
-8.44,4.94,0.14,-3.36,-3.36,-3.36
-8.48,4.89,-0.08,1.82,1.82,1.82
-8.20,4.81,-0.21,6.72,7.21,7.21
-8.08,4.86,-0.27,9.45,9.59,9.59
-8.00,4.58,-0.31,11.76,12.67,13.09
-7.45,4.19,-0.36,17.08,17.08,17.08
-6.98,3.84,-0.35,24.08,24.85,24.85
-6.71,3.59,-0.40,28.98,31.29,31.29
-6.56,3.24,-0.19,35.77,36.33,36.33
-6.86,3.08,0.01,41.58,41.58,42.07
-7.10,3.13,0.09,43.75,44.17,44.38
-6.98,3.16,0.00,44.94,44.94,44.80
-6.47,3.22,-0.08,43.89,43.89,43.89
-6.13,3.24,-0.23,40.25,40.25,40.25
-6.36,3.34,-0.38,37.24,36.19,36.19
-7.11,3.53,-0.47,31.08,31.08,31.08
-7.08,3.44,-0.43,27.02,25.76,25.76
-7.50,3.31,-0.40,22.61,20.79,20.79
-7.84,3.15,-0.48,17.15,17.15,17.15
-8.01,3.01,-0.71,12.11,12.11,12.11
-8.26,2.79,-0.77,9.31,8.54,8.54
-8.18,2.43,-1.03,5.88,5.88,5.53
-8.21,2.12,-1.41,2.87,2.87,2.87
-8.23,1.87,-1.53,1.61,1.61,1.61
-8.26,1.71,-1.70,0.28,0.28,0.07
-8.45,1.67,-2.08,-0.49,-0.63,-0.63
-8.58,1.52,-2.57,-1.26,-1.12,-1.12
-8.76,1.39,-2.71,-1.33,-1.33,-1.26
-9.11,1.34,-2.87,-1.19,-1.19,-1.19
-9.94,1.28,-3.10,-0.84,-0.84,-0.84
-10.48,1.01,-2.97,0.00,0.00,0.00
-10.58,0.41,-2.84,2.38,2.38,2.38
-10.95,0.05,-2.91,5.88,5.88,6.44
-10.79,-0.49,-2.92,10.64,11.27,11.27
-10.64,-1.04,-2.70,18.69,19.67,19.67
-10.60,-1.12,-2.64,24.36,24.36,24.92
-10.21,-1.21,-2.64,28.56,29.05,29.05
-10.49,-1.35,-2.56,32.69,32.69,32.97
-10.69,-1.43,-2.48,34.51,34.51,34.86
-11.00,-1.25,-2.46,35.84,35.84,35.98
-10.99,-1.18,-2.43,35.28,35.28,35.14
-10.83,-1.31,-2.45,33.46,33.46,33.46
-10.94,-1.47,-2.37,30.38,30.38,29.40
-11.79,-1.55,-2.53,26.53,26.11,26.11
-12.34,-1.67,-2.68,21.49,20.86,20.86
-12.33,-1.91,-2.67,16.52,16.52,16.52
-12.48,-2.17,-2.77,11.69,11.69,11.69
-12.72,-2.52,-2.89,9.10,9.10,9.10
-12.73,-2.92,-3.03,6.86,6.86,6.86
-12.73,-3.20,-3.04,6.51,6.51,6.51
-12.55,-3.46,-3.06,7.56,7.56,7.56
-12.40,-3.66,-2.99,9.38,9.38,9.38
-12.03,-3.71,-3.01,10.85,11.13,11.13
-11.58,-3.57,-2.96,11.97,12.18,12.18
-11.02,-3.33,-2.91,12.74,12.74,12.74
-10.59,-3.07,-2.79,12.32,12.25,12.25
-10.34,-2.65,-2.72,11.20,10.85,10.85
-10.10,-2.16,-2.57,7.28,6.72,6.72
-10.10,-1.75,-2.42,2.94,2.38,2.38
-10.26,-1.40,-2.30,-1.40,-1.40,-1.40
-10.44,-0.93,-2.12,-7.21,-7.21,-7.21
-10.41,-0.64,-2.02,-11.41,-11.41,-11.41
-10.58,-0.11,-1.91,-15.26,-15.26,-15.26
-10.74,0.25,-1.56,-20.30,-20.86,-20.86
-10.77,0.56,-1.45,-23.38,-24.64,-24.64
-10.70,0.78,-1.30,-26.46,-27.37,-27.37
-10.77,1.00,-1.22,-28.28,-28.49,-28.77
-10.63,1.22,-1.16,-28.91,-28.91,-28.91
-10.30,1.12,-1.14,-27.23,-27.23,-27.23
-10.03,1.06,-1.06,-23.38,-22.54,-22.54
-9.85,1.12,-0.98,-19.67,-19.11,-17.85
-9.82,1.56,-1.02,-7.91,-7.91,-7.91
-9.48,1.71,-0.99,-3.43,-3.43,-3.43
-9.45,1.75,-0.90,0.70,2.03,2.03
-9.71,2.09,-0.73,6.44,6.44,7.77
-9.93,2.47,-0.64,12.46,12.46,12.46
-10.00,2.65,-0.64,15.47,15.47,15.47
-9.75,2.71,-0.68,17.22,17.71,17.71
-9.55,2.80,-0.68,19.32,19.32,19.74
-9.39,2.63,-0.70,21.63,21.63,22.05
-9.08,2.45,-0.75,25.76,25.76,25.76
-8.82,2.29,-0.78,28.70,28.70,29.61
-9.15,2.56,-0.71,32.83,32.83,32.83
-9.26,2.72,-0.87,35.21,35.21,35.21
-8.86,2.51,-1.08,36.96,37.38,37.38
-8.93,2.47,-1.12,39.48,39.83,39.83
-8.82,2.06,-1.10,42.56,43.26,43.26
-8.56,1.72,-1.19,48.72,48.72,49.49
-8.42,1.27,-1.21,53.06,54.67,55.51
-8.15,0.96,-1.24,60.20,60.90,60.90
-7.99,0.70,-1.34,67.20,67.20,67.76
-7.75,0.23,-1.40,71.26,71.26,71.82
-7.64,0.07,-1.43,75.32,75.32,76.09
-8.16,0.02,-1.49,78.54,78.54,78.54
-9.08,0.12,-1.25,81.48,81.48,81.48
-10.06,0.27,-1.33,78.47,78.47,78.05
-9.95,0.41,-1.20,71.12,70.28,70.28
-9.93,0.44,-1.22,65.87,65.87,65.24
-8.55,-0.03,-0.95,55.86,55.86,55.86
-8.69,0.08,-0.68,51.10,51.10,51.10
-8.51,0.11,-0.55,48.37,47.53,47.53
-7.85,-0.28,-0.30,44.59,44.59,44.59
-7.46,-0.39,-0.11,41.79,41.79,41.79
-7.51,-0.33,0.02,40.53,40.18,40.18
-7.75,-0.25,0.30,39.06,38.50,38.50
-7.81,-0.21,0.48,37.10,36.47,36.47
-7.93,-0.05,0.61,34.37,34.37,33.60
-7.83,0.07,0.81,30.66,30.66,29.47
-8.46,0.62,0.89,24.99,24.99,23.38
-9.16,1.06,0.92,17.50,17.50,15.40
-9.36,1.16,1.10,9.66,8.61,6.23
-9.12,1.10,1.14,-2.17,-3.50,-3.50
-8.63,0.79,1.12,-11.76,-12.88,-12.88
-8.30,0.51,1.00,-20.93,-20.93,-22.12
-8.12,0.32,0.59,-32.48,-32.48,-33.60
-8.06,0.23,0.45,-40.46,-40.46,-40.46
-7.89,0.03,0.34,-48.37,-49.42,-51.80
-8.04,-0.05,0.19,-57.40,-58.38,-58.38
-8.85,0.21,0.20,-66.85,-66.85,-66.85
-8.99,0.21,0.22,-73.08,-73.78,-75.25
-9.05,0.22,0.18,-78.47,-79.17,-80.15
-8.96,0.14,-0.03,-82.25,-82.53,-82.53
-8.70,-0.09,-0.23,-84.42,-84.42,-84.35
-8.63,-0.07,-0.28,-83.58,-83.58,-83.30
-8.54,-0.08,-0.22,-81.27,-81.27,-80.71
-8.62,-0.09,-0.08,-77.21,-77.21,-76.58
-8.79,-0.09,0.02,-71.12,-71.12,-71.12
-8.60,-0.25,-0.01,-66.71,-65.10,-65.10
-8.66,-0.08,-0.07,-59.99,-59.99,-59.99
-8.76,-0.10,-0.01,-51.38,-51.38,-51.38
-8.96,-0.26,0.07,-45.78,-44.87,-44.87
-8.96,-0.33,0.04,-36.26,-36.26,-35.42
-9.07,-0.27,0.05,-30.94,-29.19,-28.42
-9.47,-0.31,0.01,-24.36,-24.36,-22.12
-9.37,-0.46,0.05,-18.27,-18.27,-17.50
-9.40,-0.31,-0.16,-11.55,-11.55,-10.99
-10.02,0.01,-0.31,-7.77,-7.77,-7.35
-10.20,0.27,-0.50,-6.16,-6.16,-5.74
-10.31,0.65,-0.75,-5.74,-5.74,-5.81
-10.78,1.10,-0.96,-7.98,-7.98,-8.19
-10.89,1.10,-1.03,-10.22,-10.22,-10.36
-10.75,1.04,-1.13,-11.55,-11.90,-12.04
-11.16,1.23,-1.23,-12.81,-12.81,-13.37
-11.37,1.24,-1.24,-14.00,-14.00,-14.00
-11.43,1.21,-1.29,-14.21,-14.21,-14.21
-11.65,1.20,-1.39,-13.44,-13.37,-13.37
-11.72,1.10,-1.46,-11.83,-11.83,-11.83
-11.86,0.91,-1.53,-7.91,-7.42,-7.42
-12.05,0.59,-1.81,-3.92,-3.29,-3.29
-12.54,0.59,-1.87,0.98,2.03,2.73
-12.94,0.63,-1.92,6.30,6.30,6.30
-12.91,0.67,-2.01,9.52,9.52,9.80
-13.25,0.88,-2.18,11.41,11.41,11.41
-13.49,1.02,-2.32,11.20,11.20,11.20
-13.48,1.12,-2.45,10.36,10.36,10.22
-12.52,1.39,-2.48,2.24,1.26,1.26
-12.02,1.33,-2.48,-1.89,-1.89,-3.01
-11.71,1.21,-2.49,-6.51,-6.51,-7.00
-11.48,1.24,-2.46,-10.36,-10.36,-10.92
-11.48,1.43,-2.35,-14.49,-14.49,-14.49
-11.29,1.71,-2.05,-20.23,-20.23,-20.23
-10.86,1.63,-1.77,-24.15,-24.15,-24.15
-10.36,1.45,-1.64,-26.18,-26.18,-26.18
-10.36,1.36,-1.43,-26.81,-26.88,-26.88
-10.26,1.20,-1.37,-25.76,-25.48,-25.48
-10.16,1.01,-1.32,-23.17,-23.17,-23.03
-10.26,0.91,-1.34,-20.86,-20.86,-20.86
-10.26,0.65,-1.33,-18.90,-18.06,-17.71
-10.18,0.31,-1.33,-14.63,-14.63,-13.93
-10.09,0.04,-1.24,-7.63,-7.63,-7.63
-10.01,-0.13,-1.07,-0.56,-0.56,-0.56
-9.93,-0.23,-0.95,5.11,7.00,7.00
-9.66,-0.26,-0.93,13.58,14.63,14.63
-9.41,-0.27,-0.89,20.51,21.42,21.42
-9.17,-0.30,-0.88,28.49,28.49,29.19
-9.06,-0.30,-0.82,32.90,34.30,34.30
-9.05,-0.20,-0.81,38.57,40.11,40.11
-9.03,-0.05,-0.82,44.17,44.17,45.29
-8.94,-0.01,-0.85,48.65,48.65,48.65
-8.91,-0.02,-0.87,52.85,52.85,52.85
-8.86,0.07,-0.96,54.67,55.16,55.16
-9.24,0.17,-1.04,56.49,56.49,56.98
-9.39,0.20,-1.02,58.10,58.10,58.10
-9.14,0.10,-1.23,59.22,59.29,59.29
-9.24,0.13,-1.35,59.57,59.64,59.64
-9.72,0.20,-1.29,59.50,59.50,59.50
-9.92,0.16,-1.34,59.43,59.43,59.43
-9.65,0.05,-1.43,58.94,58.80,58.80
-9.17,-0.20,-1.43,57.68,57.68,57.68
-9.04,-0.34,-1.34,57.96,57.96,57.96
-9.25,-0.40,-1.30,59.50,59.50,59.50
-9.10,-0.52,-1.27,62.37,62.37,63.00
-8.64,-0.74,-1.28,65.59,65.59,66.15
-8.68,-0.81,-1.02,68.25,68.25,68.74
-9.01,-0.84,-0.80,73.29,73.29,73.92
-8.41,-0.94,-0.78,77.49,77.49,77.49
-7.75,-1.07,-0.59,83.44,83.44,83.44
-7.88,-0.69,-0.39,87.01,87.01,87.01
-7.76,-0.01,-0.23,90.09,89.95,89.95
-7.22,0.03,-0.24,87.43,87.43,87.01
-7.55,0.61,-0.11,84.21,82.81,82.04
-8.57,1.24,0.11,77.84,77.84,74.62
-9.30,1.77,0.26,69.16,69.16,66.64
-8.05,1.57,0.08,44.17,42.49,42.49
-8.27,1.40,-0.11,26.60,26.60,24.85
-8.57,0.93,-0.08,14.14,14.14,12.46
-8.53,0.48,-0.04,0.91,0.91,-0.70
-8.44,0.20,-0.27,-14.35,-14.35,-14.35
-8.27,-0.02,-0.38,-23.17,-26.11,-26.11
-8.40,0.03,-0.49,-35.77,-35.77,-38.99
-8.85,0.27,-0.72,-49.21,-49.21,-49.21
-8.94,0.15,-1.14,-66.78,-66.78,-66.78
-8.32,-0.13,-1.33,-76.72,-78.33,-78.33
-8.12,-0.28,-1.56,-91.63,-91.63,-92.89
-8.56,-0.31,-1.69,-99.54,-101.99,-103.18
-8.90,-0.35,-1.86,-109.06,-109.06,-112.4
-8.79,-0.55,-2.07,-117.32,-117.32,-118.1
-8.71,-0.76,-2.28,-123.90,-123.90,-124.6
-9.11,-0.96,-2.31,-125.93,-126.14,-126.1
-8.88,-1.55,-2.38,-125.02,-124.53,-124.5
-8.24,-2.02,-2.52,-119.28,-119.28,-119.2
-8.07,-2.36,-2.56,-112.00,-112.00,-110.8
-7.90,-2.46,-2.48,-93.80,-93.80,-92.33
-7.81,-2.42,-2.43,-82.88,-80.15,-80.15
-7.90,-2.29,-2.34,-72.45,-72.45,-69.93
-8.35,-1.72,-2.27,-62.72,-61.81,-61.81
-8.64,-1.40,-2.32,-54.67,-54.67,-53.90
-8.99,-1.45,-2.17,-46.97,-46.97,-46.97
-9.31,-1.36,-2.26,-42.14,-42.14,-42.14
-9.29,-1.29,-2.33,-37.45,-37.45,-37.45
-10.00,-0.88,-2.47,-31.71,-31.71,-31.71
-10.42,-0.96,-2.54,-28.63,-27.58,-27.58
-10.04,-1.35,-2.41,-24.01,-24.01,-23.52
-9.81,-1.53,-2.46,-19.46,-19.04,-19.04
-10.22,-1.50,-2.56,-13.16,-13.16,-12.46
-10.03,-1.67,-2.51,-9.03,-7.84,-7.21
-9.66,-1.62,-2.45,-3.99,-3.99,-2.52
-9.64,-1.55,-2.57,0.28,0.28,0.28
-10.43,-1.43,-2.62,2.59,2.59,2.59
-10.84,-1.38,-2.54,3.57,3.71,3.71
-10.80,-1.15,-2.55,4.69,4.69,4.90
-10.05,-1.25,-2.37,5.53,5.53,5.53
-10.72,-1.02,-2.35,4.69,4.27,4.27
-11.61,-0.59,-2.32,2.38,1.54,1.54
-12.00,-0.47,-2.54,-1.12,-1.12,-2.17
-13.44,-0.32,-2.45,-15.96,-15.96,-15.96
-14.02,-0.24,-2.24,-21.63,-21.63,-21.63
-14.20,-0.22,-2.16,-25.97,-25.97,-25.97
-13.97,-0.32,-2.01,-29.26,-29.26,-29.26
-13.32,-0.65,-1.92,-31.78,-31.78,-31.78
-12.47,-0.92,-1.83,-31.78,-31.57,-31.57
-11.64,-1.15,-1.70,-30.10,-30.10,-30.10
-11.05,-1.31,-1.61,-28.56,-28.07,-28.07
-10.65,-1.35,-1.55,-26.60,-26.60,-26.18
-10.58,-1.24,-1.55,-25.27,-25.06,-25.06
-10.97,-1.00,-1.39,-24.85,-24.85,-24.85
-11.33,-0.79,-1.28,-24.85,-24.85,-24.85
-11.35,-0.45,-1.43,-25.41,-25.62,-25.62
-11.38,-0.14,-1.85,-27.79,-27.79,-27.79
-11.24,0.11,-2.05,-29.82,-30.59,-30.59
-11.11,0.41,-2.21,-32.62,-32.62,-32.62
-11.08,0.95,-1.86,-36.89,-36.89,-36.89
-10.98,1.02,-1.74,-41.65,-41.72,-41.72
-10.66,0.91,-1.72,-42.28,-42.28,-42.21
-10.45,0.71,-1.66,-41.30,-40.67,-40.32
-9.98,0.26,-1.62,-36.19,-36.19,-35.49
-9.52,-0.05,-1.79,-27.44,-27.44,-27.44
-9.26,-0.37,-1.92,-19.88,-19.88,-18.62
-9.34,-0.81,-2.09,-10.15,-10.15,-8.89
-9.86,-0.95,-2.30,2.73,2.73,2.73
-9.48,-1.29,-2.31,12.39,12.39,12.39
-9.30,-1.53,-2.33,22.89,24.29,24.29
-9.52,-1.54,-2.39,37.80,39.27,39.27
-9.60,-1.45,-2.45,47.60,47.60,47.60
-9.57,-1.14,-2.61,55.93,55.93,59.15
-9.05,-1.00,-2.57,65.94,65.94,66.85
-9.05,-0.82,-2.48,72.73,73.71,73.71
-8.63,-0.62,-2.59,80.01,80.01,80.57
-8.14,-0.55,-2.67,83.72,84.91,85.40
-8.26,-0.33,-2.57,89.32,89.32,89.32
-8.59,-0.11,-2.46,93.10,93.45,93.45
-8.17,-0.08,-2.31,94.57,94.99,95.06
-7.94,-0.12,-2.19,95.76,96.11,96.11
-7.99,0.00,-2.08,96.60,96.60,96.60
-8.48,0.14,-1.68,96.67,96.67,96.67
-8.76,0.45,-1.55,95.62,95.62,95.62
-8.32,0.48,-1.38,93.24,93.24,93.24
-7.90,0.48,-1.14,90.93,90.09,90.09
-8.19,0.62,-1.08,87.01,85.96,85.96
-8.90,0.80,-1.02,82.04,81.48,81.48
-8.53,0.76,-0.89,76.79,76.79,76.79
-7.94,0.63,-0.66,71.61,71.61,71.61
-8.02,0.96,-0.45,64.54,63.77,63.77
-8.47,1.27,-0.44,58.31,57.47,57.47
-8.81,1.32,-0.38,50.61,49.70,49.70
-8.70,1.26,-0.21,40.60,40.60,39.69
-8.42,1.18,-0.13,34.79,32.76,31.85
-8.17,1.01,-0.22,27.37,27.37,24.71
-7.95,0.92,-0.32,18.13,18.13,18.13
-8.28,0.88,-0.35,10.50,9.52,9.52
-8.75,0.92,-0.42,1.68,1.68,1.68
-8.26,0.68,-0.37,-6.72,-7.63,-7.63
-8.11,0.60,-0.45,-13.23,-14.28,-14.28
-8.57,0.80,-0.49,-23.31,-23.31,-24.15
-8.79,0.98,-0.61,-31.08,-31.08,-32.06
-8.62,1.00,-0.82,-37.80,-37.80,-38.57
-8.49,0.92,-1.08,-46.76,-46.76,-46.76
-8.07,0.60,-1.17,-51.31,-52.64,-52.64
-8.01,0.33,-1.16,-56.91,-56.91,-56.91
-8.11,0.25,-1.18,-59.22,-59.22,-59.22
-8.04,-0.05,-1.20,-59.78,-59.78,-59.78
-7.99,-0.35,-1.23,-59.01,-59.01,-59.01
-8.05,-0.41,-0.01,-57.05,-57.05,-57.05
-8.26,-0.50,-2.45,-53.62,-53.62,-53.62
-8.03,-0.75,-1.16,-48.30,-48.30,-48.30
-8.37,-0.77,-1.11,-42.49,-41.86,-41.86
-8.67,-0.62,-1.01,-38.78,-37.59,-37.03
-7.38,-0.49,-1.07,-33.95,-33.95,-33.32
-8.65,-0.33,-1.29,-28.70,-28.70,-28.21
-8.41,-0.58,-1.22,-20.65,-20.65,-20.65
-8.57,-0.55,-1.23,-17.64,-16.87,-16.87
-8.70,-0.57,-1.26,-14.21,-14.21,-14.21
-8.91,-0.62,-1.12,-12.25,-12.25,-12.25
-9.37,-0.49,-1.17,-11.55,-11.55,-11.55
-9.68,-0.36,-1.22,-12.67,-12.67,-12.67
-9.59,-0.38,-1.16,-14.28,-14.77,-14.77
-9.78,-0.42,-1.25,-17.08,-17.08,-17.99
-9.85,-0.19,-1.43,-21.14,-21.63,-21.63
-10.06,0.02,-1.56,-27.30,-27.30,-28.07
-10.46,0.09,-1.73,-32.41,-32.41,-33.11
-10.36,-0.10,-1.76,-39.06,-39.06,-39.06
-10.49,-0.18,-1.68,-43.40,-43.40,-43.40
-10.54,-0.35,-1.77,-45.64,-46.06,-46.06
-11.08,-0.64,-1.74,-47.32,-47.32,-47.32
-11.44,-0.87,-1.62,-46.48,-45.78,-45.29
-11.30,-1.13,-1.51,-42.91,-41.79,-41.09
-11.79,-1.47,-1.44,-37.24,-37.24,-36.47
-12.36,-1.85,-1.23,-29.47,-29.47,-25.97
-12.22,-2.13,-1.07,-19.46,-19.46,-18.13
-12.06,-2.26,-0.96,-8.05,-6.58,-6.58
-12.09,-2.28,-0.99,4.06,6.93,8.33
-12.34,-2.15,-0.87,14.84,17.22,18.20
-12.51,-1.96,-0.65,24.43,25.27,25.27
-12.86,-1.85,-0.56,30.73,31.43,31.43
-12.99,-1.82,-0.43,36.68,36.68,37.31
-12.95,-1.94,-0.34,40.25,40.25,40.67
-12.85,-2.00,-0.29,44.03,44.03,44.03
-12.84,-1.85,-0.24,45.29,45.29,45.29
-12.73,-1.53,-0.10,43.54,43.54,43.54
-12.33,-1.23,-0.01,39.97,39.97,39.97
-11.81,-0.95,0.07,33.46,32.62,32.62
-11.18,-0.84,-0.04,26.60,25.76,25.76
-10.57,-0.73,-0.10,21.56,18.97,18.97
-10.16,-0.56,-0.21,14.77,13.93,12.53
-9.86,-0.39,-0.20,8.75,7.91,7.91
-9.81,-0.11,-0.10,1.40,0.49,0.49
-9.90,-0.01,0.01,-4.97,-5.74,-5.74
-9.91,0.14,0.03,-11.97,-12.95,-12.95
-9.96,0.06,0.01,-18.27,-18.27,-18.27
-10.14,-0.07,-0.09,-24.64,-24.64,-26.18
-10.40,-0.25,-0.15,-31.78,-31.78,-31.78
-10.75,-0.43,-0.34,-36.12,-36.12,-36.12
-11.15,-0.97,-0.88,-40.67,-40.88,-41.37
-10.88,-1.34,-1.37,-42.91,-42.91,-43.26
-10.55,-1.50,-1.57,-45.43,-45.43,-45.43
-10.58,-1.56,-1.81,-47.53,-47.53,-47.53
-10.55,-1.47,-2.01,-51.52,-52.08,-52.08
-10.48,-1.38,-2.17,-55.30,-57.05,-57.05
-10.35,-1.26,-2.44,-60.13,-60.62,-61.67
-10.04,-1.31,-2.59,-64.12,-64.12,-64.61
-10.09,-1.20,-2.71,-68.46,-68.46,-68.95
-10.12,-1.12,-2.75,-71.05,-71.05,-71.33
-9.75,-1.14,-2.73,-73.99,-73.99,-74.27
-9.56,-1.17,-2.68,-75.11,-75.11,-75.32
-9.04,-1.17,-2.82,-75.53,-75.60,-75.74
-8.91,-1.37,-3.07,-66.36,-64.61,-64.61
-9.12,-1.43,-3.14,-56.91,-56.91,-56.91
-9.40,-1.45,-3.04,-46.48,-46.48,-46.48
-8.94,-1.60,-3.10,-27.09,-27.09,-27.09
-8.91,-1.40,-3.11,-16.73,-16.73,-16.73
-9.42,-1.20,-3.00,-6.44,-5.39,-5.39
-9.52,-0.96,-2.95,0.98,0.98,1.82
-9.16,-0.68,-2.94,6.65,7.28,7.28
-9.12,-0.54,-2.84,11.69,12.32,12.32
-9.49,-0.41,-2.70,17.15,17.85,17.85
-9.21,-0.33,-2.69,21.35,23.38,23.38
-8.51,-0.23,-2.61,28.21,28.21,28.21
-8.19,-0.24,-2.48,35.56,35.56,35.56
-8.40,-0.23,-2.27,40.25,41.93,41.93
-8.58,-0.08,-2.04,47.67,47.67,47.67
-8.28,0.05,-2.07,53.97,53.97,53.97
-7.71,0.13,-1.99,61.46,61.46,61.46
-7.37,0.45,-1.75,66.22,66.22,66.22
-8.45,0.87,-1.45,69.23,69.23,69.23
-7.94,0.93,-1.28,73.01,73.43,73.43
-7.24,0.74,-1.28,76.44,77.00,77.00
-6.70,0.71,-1.21,80.43,80.43,81.76
-6.71,0.96,-1.09,83.44,83.44,83.72
-7.08,1.21,-0.95,85.12,85.12,85.19
-7.49,1.45,-0.87,84.00,84.00,83.79
-7.96,1.71,-0.86,81.83,80.92,80.50
-8.56,1.64,-0.90,77.35,76.72,76.72
-8.61,1.32,-0.86,71.89,71.89,71.47
-8.97,1.21,-0.96,68.32,68.32,67.90
-9.26,1.00,-1.03,65.66,65.24,65.24
-9.07,0.60,-1.11,61.18,61.18,60.41
-9.18,1.07,-1.17,44.24,44.24,42.91
-8.35,1.06,-1.29,36.05,33.11,31.50
-7.60,1.18,-1.67,21.70,20.09,20.09
-7.23,1.09,-1.97,5.32,5.32,3.85
-7.05,0.97,-2.00,-7.21,-7.21,-8.89
-7.03,0.82,-2.00,-16.45,-19.53,-21.07
-7.07,0.67,-2.08,-31.50,-31.50,-31.50
-6.98,0.50,-2.04,-43.33,-44.45,-44.45
-6.59,0.06,-2.15,-57.19,-57.19,-57.19
-7.16,-0.04,-2.34,-61.18,-61.18,-61.53
-6.98,-0.40,-2.28,-63.21,-63.21,-63.21
-7.15,-0.77,-2.41,-62.86,-62.86,-62.51
-7.95,-1.14,-2.65,-56.07,-56.07,-56.07
-8.31,-1.36,-2.72,-50.89,-50.89,-50.89
-8.67,-1.79,-2.87,-44.87,-44.87,-44.87
-9.20,-2.10,-2.93,-38.08,-38.08,-38.08
-9.76,-2.09,-2.90,-30.87,-30.87,-30.87
-9.93,-2.15,-2.84,-24.71,-24.71,-24.71
-10.29,-2.37,-2.90,-17.85,-17.22,-17.22
-10.73,-2.77,-2.64,-2.31,-2.31,-2.31
-10.90,-2.85,-2.65,0.91,0.91,1.75
-10.79,-2.88,-2.52,3.99,3.99,4.62
-10.34,-3.00,-2.48,6.09,6.23,6.23
-10.71,-2.94,-2.46,6.65,6.58,6.65
-11.56,-2.99,-2.35,6.37,6.37,6.16
-12.11,-3.06,-2.16,5.18,5.18,5.18
-12.18,-3.13,-2.03,3.85,3.85,3.85
-12.33,-3.01,-1.95,2.31,2.31,2.31
-13.16,-2.92,-1.79,1.33,1.33,1.19
-13.05,-3.02,-1.67,1.12,1.12,1.12
-12.36,-3.26,-1.67,1.96,1.96,1.96
-12.12,-3.31,-1.78,4.27,4.27,4.27
-12.28,-3.04,-1.90,5.53,5.53,5.53
-12.14,-2.97,-1.88,6.93,7.07,7.07
-11.90,-2.95,-1.91,8.68,9.03,9.03
-11.53,-2.91,-1.98,10.71,10.92,10.92
-11.45,-2.79,-2.00,12.18,12.18,12.39
-11.37,-2.49,-2.03,12.95,12.95,12.95
-11.18,-2.31,-1.99,12.18,12.18,12.18
-10.87,-2.14,-2.02,10.85,10.57,10.57
-10.73,-2.00,-2.08,8.33,8.33,7.91
-10.78,-1.76,-2.14,4.20,4.20,3.78
-10.91,-1.51,-2.20,0.35,0.35,-0.14
-11.17,-1.31,-2.19,-3.78,-3.78,-4.27
-11.21,-1.23,-2.19,-7.28,-7.28,-7.28
-11.24,-1.18,-2.10,-10.99,-11.34,-11.34
-11.33,-1.04,-2.14,-13.23,-13.44,-13.44
-11.27,-0.95,-2.18,-14.70,-14.91,-14.91
-11.31,-0.85,-2.19,-15.54,-15.89,-15.89
-11.31,-0.80,-2.12,-16.52,-16.94,-16.94
-11.23,-0.89,-2.34,-18.20,-18.34,-18.34
-11.10,-0.90,-2.58,-18.97,-19.11,-19.11
-10.94,-0.98,-2.89,-19.25,-19.25,-19.25
-10.64,-1.14,-3.13,-19.25,-19.25,-19.25
-10.56,-1.44,-3.37,-17.99,-17.99,-17.99
-10.94,-1.62,-3.45,-16.17,-15.47,-15.47
-11.26,-1.70,-3.60,-13.02,-13.02,-12.32
-10.92,-1.64,-3.59,-10.08,-10.08,-9.38
-10.23,-1.50,-3.35,-7.21,-7.21,-7.21
-8.92,-1.06,-3.15,-1.89,-1.68,-1.68
-8.47,-0.34,-2.18,3.01,3.01,3.29
-7.95,-0.31,-2.14,5.46,5.74,5.74
-7.18,-0.37,-2.28,8.96,8.96,9.38
-7.07,-0.36,-2.21,12.11,13.30,14.00
-7.64,-0.36,-1.78,17.78,17.78,20.44
-7.51,-0.38,-1.82,25.13,25.13,26.04
-6.64,-0.45,-2.11,34.51,34.51,35.42
-6.61,-0.37,-2.06,41.79,41.79,42.63
-7.60,-0.07,-1.70,48.72,48.72,49.63
-8.67,0.29,-1.53,53.62,54.95,55.72
-8.35,0.57,-1.73,58.66,58.66,59.71
-8.09,0.66,-1.70,62.51,62.51,62.51
-8.50,0.94,-1.56,65.80,65.80,65.80
-8.43,1.03,-1.65,67.13,67.13,67.13
-7.71,0.97,-1.73,67.27,67.20,67.20
-7.17,0.95,-1.70,66.29,66.29,66.08
-7.02,1.03,-1.68,65.24,64.68,64.40
-7.04,1.26,-1.79,61.81,61.81,61.81
-6.79,1.29,-1.98,56.84,56.21,56.21
-6.85,1.32,-2.00,52.36,49.84,49.84
-7.35,1.57,-2.09,44.80,41.44,41.44
-7.82,1.78,-2.13,34.30,34.30,32.97
-7.64,1.80,-2.03,20.72,20.72,19.39
-7.93,2.08,-2.15,9.17,9.17,7.56
-8.57,2.29,-2.31,-1.61,-1.61,-3.01
-8.59,2.26,-2.51,-17.01,-17.01,-17.01
-7.89,1.96,-2.61,-26.88,-26.88,-26.88
-7.65,1.69,-2.72,-37.73,-37.73,-37.73
-7.45,1.53,-2.75,-43.19,-43.19,-43.19
-7.31,1.34,-2.84,-48.30,-48.65,-48.65
-7.32,1.15,-2.91,-51.03,-51.10,-51.10
-7.38,0.98,-2.95,-51.94,-52.08,-52.08
-7.36,0.54,-2.96,-49.70,-49.35,-48.79
-7.70,0.48,-3.10,-46.97,-46.41,-46.41
-7.89,0.40,-3.19,-42.63,-42.35,-42.35
-8.14,0.38,-3.23,-39.13,-38.71,-38.71
-8.81,0.42,-3.32,-36.40,-35.98,-35.98
-9.10,0.45,-3.36,-33.39,-33.39,-32.97
-9.00,0.27,-3.40,-31.57,-31.57,-30.80
-9.15,0.20,-3.58,-29.47,-29.47,-29.26
-9.34,0.05,-3.71,-26.32,-26.32,-25.97
-8.98,-0.25,-3.59,-23.87,-23.87,-23.52
-9.09,-0.47,-3.63,-20.09,-20.09,-20.09
-9.44,-0.36,-3.60,-17.64,-16.94,-16.94
-9.31,-0.36,-3.55,-14.35,-14.35,-14.07
-9.48,-0.38,-3.48,-11.62,-11.62,-11.62
-9.47,-0.51,-3.49,-10.43,-10.08,-10.08
-9.56,-0.40,-3.52,-9.03,-8.82,-8.82
-9.78,-0.28,-3.63,-8.05,-8.05,-7.98
-9.68,-0.59,-3.56,-7.42,-7.42,-7.35
-9.49,-0.94,-3.42,-6.16,-6.16,-6.09
-9.50,-1.16,-3.31,-4.62,-4.62,-4.41
-9.44,-1.38,-3.20,-3.08,-3.08,-3.08
-9.55,-1.69,-3.10,-1.19,-1.19,-1.19
-9.55,-1.79,-3.04,-0.35,-0.35,-0.35
-9.48,-1.61,-3.00,-0.49,-0.49,-0.77
-9.68,-1.70,-2.80,-2.45,-2.45,-2.45
-9.56,-1.83,-2.58,-5.11,-5.32,-5.32
-9.55,-1.78,-2.61,-7.21,-7.56,-7.56
-9.85,-1.73,-2.61,-8.68,-9.24,-9.45
-10.29,-1.73,-2.59,-10.57,-10.57,-11.20
-10.37,-1.92,-2.49,-12.81,-12.81,-12.88
-10.37,-2.04,-2.44,-13.72,-13.72,-13.72
-10.94,-2.45,-2.43,-13.79,-13.79,-13.79
-11.20,-2.70,-2.47,-12.18,-11.90,-11.90
-10.98,-2.78,-2.57,-9.87,-9.66,-9.66
-10.96,-3.03,-2.56,-7.35,-7.35,-6.86
-10.98,-3.24,-2.58,-5.67,-5.67,-4.97
-11.07,-3.38,-2.57,-3.50,-3.50,-3.36
-11.23,-3.65,-2.52,-1.26,-1.26,-0.98
-11.26,-3.75,-2.55,1.75,1.75,2.10
-11.27,-3.92,-2.54,5.04,5.04,5.04
-11.38,-4.00,-2.54,6.93,6.93,6.93
-11.32,-4.10,-2.60,8.19,8.61,8.61
-11.13,-4.13,-2.78,9.66,9.66,10.01
-10.74,-4.08,-2.95,11.27,11.27,11.27
-10.45,-4.02,-3.14,11.90,12.04,12.04
-10.32,-3.85,-3.34,11.62,11.13,11.13
-10.49,-3.61,-3.55,9.87,9.66,9.17
-10.92,-3.35,-3.64,6.65,6.65,6.30
-11.34,-3.13,-3.64,2.31,2.31,2.31
-11.88,-2.92,-3.61,-1.05,-2.17,-2.17
-12.39,-2.86,-3.53,-5.88,-5.88,-7.07
-12.68,-2.85,-3.48,-10.36,-10.36,-11.34
-12.69,-2.72,-3.43,-13.86,-13.86,-13.86
-12.27,-2.53,-3.44,-14.70,-14.70,-14.70
-11.84,-2.22,-3.45,-15.05,-15.33,-15.26
-11.20,-1.86,-3.21,-15.61,-15.61,-15.61
-10.78,-1.38,-3.02,-15.40,-15.33,-15.33
-10.55,-0.92,-3.04,-14.77,-14.70,-14.70
-10.23,-0.76,-3.12,-14.14,-14.14,-14.07
-10.12,-0.76,-3.07,-13.58,-13.58,-13.51
-9.84,-0.89,-3.11,-12.95,-12.95,-12.88
-9.71,-0.94,-3.11,-12.11,-12.11,-12.18
-9.74,-0.81,-3.00,-12.11,-12.11,-12.18
-10.38,-0.65,-2.91,-12.32,-12.39,-12.53
-10.75,-0.54,-2.70,-12.60,-12.53,-12.46
-10.39,-0.52,-2.58,-11.97,-11.97,-11.55
-9.53,-0.88,-2.01,-5.67,-5.67,-5.67
-9.06,-1.03,-2.04,0.49,0.49,0.49
-8.45,-1.04,-1.94,9.38,10.36,10.36
-7.71,-0.98,-1.69,17.57,17.57,17.57
-7.20,-1.13,-1.41,27.02,27.02,28.21
-6.49,-1.32,-1.51,36.12,36.12,37.10
-5.82,-1.33,-1.65,44.17,44.17,45.29
-6.08,-1.14,-1.47,50.05,52.01,52.99
-6.67,-0.88,-1.22,57.89,57.89,60.55
-7.26,-0.65,-1.16,64.54,64.54,65.10
-7.13,-0.43,-1.33,69.58,69.58,69.93
-7.27,-0.18,-1.23,71.40,71.40,71.61
-7.85,0.16,-1.21,72.38,72.38,72.45
-8.17,0.46,-1.21,72.52,72.31,72.31
-8.26,0.77,-1.12,71.40,71.40,70.56
-7.64,0.64,-1.34,69.16,69.16,68.88
-7.63,0.60,-1.58,65.80,65.80,65.38
-7.50,0.38,-1.60,63.14,63.14,63.14
-7.21,0.15,-1.59,61.53,61.53,61.53
-7.54,0.19,-1.57,60.41,59.92,59.92
-8.18,0.29,-1.67,57.89,57.47,57.47
-8.20,0.35,-1.58,54.18,53.13,52.50
-8.23,0.54,-1.58,48.58,48.02,48.02
-8.65,0.71,-1.74,40.67,40.67,39.76
-8.61,0.69,-1.64,35.49,33.60,32.90
-8.34,0.68,-1.56,28.63,26.81,25.97
-8.52,0.92,-1.62,21.42,21.42,18.62
-8.46,0.91,-1.77,11.76,11.76,11.76
-7.84,0.72,-1.81,3.99,3.99,3.99
-7.34,0.57,-1.91,-5.46,-5.46,-5.46
-7.69,0.50,-1.93,-26.25,-26.25,-26.25
-7.86,0.47,-2.03,-33.18,-33.95,-33.95
-7.98,0.35,-2.11,-38.64,-38.64,-39.34
-8.12,0.18,-2.09,-43.68,-44.03,-44.03
-8.07,-0.12,-2.19,-47.53,-47.53,-47.74
-8.27,-0.40,-2.33,-48.79,-48.79,-48.86
-8.77,-0.45,-2.44,-48.44,-48.44,-48.23
-8.98,-0.76,-2.18,-46.06,-46.06,-46.06
-9.39,-0.84,-2.00,-42.91,-42.56,-42.56
-9.64,-0.61,-2.09,-40.18,-39.83,-39.83
-9.29,-0.65,-2.18,-38.22,-37.31,-37.31
-8.80,-0.89,-2.19,-35.56,-35.28,-34.58
-9.02,-0.93,-2.01,-31.71,-31.22,-31.22
-9.33,-0.74,-2.05,-28.98,-28.63,-28.63
-9.27,-0.67,-2.00,-26.95,-26.74,-26.74
-9.17,-0.75,-1.84,-25.34,-25.13,-25.13
-9.24,-0.78,-1.87,-24.50,-24.15,-24.15
-9.76,-0.63,-1.85,-23.73,-23.66,-23.52
-9.68,-0.70,-1.62,-23.17,-23.17,-22.96
-9.61,-0.87,-1.59,-22.82,-22.89,-22.75
-9.81,-0.83,-1.75,-22.68,-22.68,-22.89
-10.33,-0.39,-1.83,-26.25,-26.32,-26.32
-10.27,-0.46,-1.82,-27.58,-27.58,-27.58
-10.53,-0.68,-1.88,-27.58,-27.58,-27.65
-10.79,-0.81,-1.90,-26.95,-26.95,-26.95
-10.73,-1.07,-1.98,-25.76,-25.76,-25.76
-11.37,-1.23,-2.13,-23.10,-23.10,-23.10
-11.82,-1.36,-2.18,-21.07,-21.07,-21.07
-12.19,-1.57,-2.09,-19.60,-19.18,-19.18
-12.35,-1.97,-2.11,-16.80,-16.80,-16.31
-12.35,-2.46,-2.02,-12.32,-12.32,-11.69
-12.11,-2.68,-1.84,-3.78,-3.78,-3.78
-11.64,-2.68,-1.75,3.99,3.99,3.99
-11.28,-2.61,-1.54,11.62,11.62,11.62
-11.24,-2.48,-1.43,16.59,17.99,17.99
-11.22,-2.33,-1.25,22.19,22.19,23.38
-11.17,-2.17,-0.97,26.67,26.67,26.67
-11.34,-1.94,-0.78,30.38,30.38,30.38
-11.50,-1.71,-0.55,32.90,32.90,32.90
-10.87,-0.97,0.37,30.52,30.17,30.17
-10.65,-0.62,0.71,24.85,24.85,24.15
-10.43,-0.45,0.89,19.25,19.25,19.25
-10.25,-0.23,0.99,10.08,10.08,10.08
-9.95,-0.10,1.05,4.27,2.31,2.31
-9.64,0.01,1.01,-3.36,-3.36,-5.25
-9.49,0.09,0.97,-11.55,-12.25,-12.25
-9.61,0.18,0.92,-17.99,-18.83,-18.83
-9.83,0.26,0.85,-25.06,-25.06,-25.69
-10.19,0.38,0.83,-29.75,-29.75,-30.31
-10.67,0.62,0.79,-33.04,-34.09,-34.58
-11.21,0.60,0.61,-36.96,-37.80,-37.80
-11.87,0.53,0.29,-40.25,-40.25,-40.25
-12.42,0.41,-0.12,-41.65,-41.65,-41.65
-12.61,0.23,-0.31,-41.37,-41.37,-41.37
-12.83,-0.04,-0.61,-38.78,-38.29,-38.29
-12.68,-0.33,-0.84,-35.70,-34.16,-34.16
-12.24,-0.51,-1.22,-31.01,-30.38,-29.12
-12.06,-0.51,-1.59,-26.04,-25.34,-25.34
-11.92,-0.52,-2.20,-20.30,-20.30,-19.74
-11.70,-0.62,-2.42,-16.10,-16.10,-15.68
-11.40,-0.90,-2.51,-12.25,-12.25,-11.62
-10.89,-1.01,-2.45,-8.82,-8.82,-8.40
-10.84,-0.98,-2.57,-6.93,-6.44,-6.09
-10.63,-0.95,-2.68,-5.11,-5.11,-4.48
-10.13,-0.96,-2.59,-3.36,-3.36,-3.36
-9.71,-1.06,-2.52,-1.26,-1.26,-1.26
-9.70,-1.15,-2.42,0.56,1.33,1.33
-9.82,-1.24,-2.47,4.41,4.41,5.46
-8.38,-1.54,-2.19,15.61,15.61,15.61
-8.86,-1.51,-2.05,21.42,21.42,21.42
-8.80,-1.42,-1.91,26.04,27.65,27.65
-8.21,-1.40,-1.84,32.20,32.20,33.67
-7.72,-1.40,-1.82,37.73,38.50,38.50
-7.83,-1.29,-1.68,46.27,47.18,47.18
-8.01,-1.01,-1.56,51.66,54.39,54.39
-7.69,-0.65,-1.56,58.52,59.36,60.97
-6.17,-0.57,-1.49,73.71,74.55,74.55
-6.00,-0.63,-1.73,81.83,82.81,82.81
-5.72,-0.79,-1.91,89.25,89.25,107.17
-5.36,-0.93,-2.01,97.37,97.37,97.37
-4.97,-0.97,-2.22,104.93,104.93,104.93
-5.39,-0.85,-2.46,107.80,108.50,108.50
-6.18,-0.45,-2.60,109.27,109.27,108.92
-6.81,0.06,-2.86,105.63,104.86,104.86
-7.07,0.41,-3.01,94.36,94.36,92.82
-7.81,0.88,-3.32,84.21,80.29,78.33
-8.73,1.38,-3.32,67.20,67.20,59.85
-9.58,1.90,-3.16,46.76,46.76,44.03
-10.00,2.16,-3.15,18.97,18.97,16.17
-8.72,1.67,-3.25,-23.59,-25.83,-25.83
-8.09,1.40,-3.31,-38.85,-40.81,-40.81
-7.64,1.00,-3.31,-54.60,-54.60,-54.60
-7.00,0.50,-3.19,-66.43,-66.43,-66.43
-6.56,0.05,-3.11,-71.68,-71.68,-71.68
-6.57,-0.17,-2.99,-75.32,-75.46,-75.46
-6.21,-0.56,-2.80,-75.95,-75.95,-75.74
-6.10,-0.84,-2.60,-74.13,-74.13,-74.13
-6.73,-0.70,-2.47,-72.03,-71.33,-71.33
-6.99,-0.63,-2.39,-69.02,-68.60,-68.60
-6.80,-0.70,-2.56,-64.96,-64.96,-64.96
-6.82,-1.00,-2.71,-61.53,-61.53,-61.53
-7.91,-1.12,-2.59,-58.24,-58.24,-58.24
-8.70,-0.98,-2.47,-53.90,-53.48,-53.48
-8.92,-1.03,-2.67,-51.52,-50.54,-50.54
-9.32,-1.28,-2.78,-49.07,-48.37,-48.37
-10.02,-1.35,-2.69,-46.62,-46.62,-46.62
-10.31,-1.16,-2.75,-45.22,-45.08,-45.08
-10.41,-1.01,-2.94,-44.80,-44.87,-44.87
-9.60,-1.58,-3.18,-41.65,-41.30,-41.30
-9.69,-1.72,-3.54,-38.78,-38.78,-38.36
-9.57,-1.81,-3.58,-33.46,-33.46,-33.46
-9.35,-2.00,-3.56,-29.82,-29.82,-28.77
-9.55,-2.20,-3.80,-25.13,-25.13,-25.13
-10.13,-2.38,-3.98,-19.39,-19.39,-19.39
-10.20,-2.49,-3.91,-14.70,-14.70,-14.70
-10.06,-2.65,-3.99,-10.50,-10.50,-10.50
-10.40,-2.67,-4.26,-6.86,-6.86,-6.86
-10.74,-2.68,-4.26,-4.55,-3.78,-3.78
-10.72,-2.90,-4.11,-1.47,-1.47,-0.98
-11.06,-2.89,-4.19,0.70,0.91,0.91
-11.27,-2.92,-3.93,3.92,3.92,3.92
-10.88,-2.92,-3.91,4.90,5.04,5.04
-10.39,-2.87,-3.79,5.88,5.88,6.23
-9.85,-2.85,-3.67,7.63,8.05,8.05
-9.71,-2.94,-3.67,9.73,10.08,10.08
-9.63,-3.03,-3.42,12.25,12.25,12.39
-9.41,-3.01,-3.35,13.93,13.93,13.93
-9.43,-2.97,-3.26,14.91,14.91,14.91
-9.39,-2.85,-3.15,14.42,14.42,14.42
-9.49,-2.87,-3.09,13.16,13.16,13.16
-9.41,-2.76,-3.03,10.78,10.50,10.50
-9.22,-2.68,-3.04,7.21,7.21,7.21
-9.26,-2.57,-2.97,3.15,3.15,2.52
-9.08,-2.61,-3.01,-1.05,-1.05,-1.05
-8.92,-2.68,-3.00,-3.29,-3.92,-3.92
-8.90,-2.66,-3.05,-6.30,-6.65,-6.65
-8.96,-2.71,-3.02,-8.96,-9.31,-9.31
-8.71,-2.87,-2.97,-10.99,-11.06,-11.06
-8.45,-2.99,-3.06,-11.48,-11.48,-11.48
-8.25,-3.07,-3.13,-10.99,-10.78,-10.78
-8.17,-3.16,-3.13,-10.36,-10.22,-10.22
-8.11,-3.17,-3.10,-10.08,-10.08,-10.01
-8.24,-3.21,-3.09,-9.73,-9.73,-9.73
-8.33,-3.24,-3.13,-9.03,-9.03,-9.03
-8.44,-3.28,-3.13,-8.61,-8.61,-8.61
-8.41,-3.33,-3.21,-8.96,-8.96,-8.96
-8.43,-3.43,-3.27,-9.31,-9.31,-9.31
-8.57,-3.63,-3.35,-9.94,-9.94,-9.94
-8.72,-3.89,-3.46,-10.71,-10.71,-10.71
-8.87,-4.05,-3.55,-11.06,-11.06,-10.99
-8.72,-4.30,-3.72,-10.99,-10.99,-10.99
-8.32,-4.52,-3.85,-10.43,-10.36,-10.36
-8.00,-4.62,-3.98,-9.24,-8.89,-8.47
-7.86,-4.76,-4.18,-6.86,-6.65,-6.65
-7.93,-4.92,-4.49,-3.22,-2.87,-2.87
-7.98,-4.87,-4.53,-0.63,-0.63,-0.63
-7.95,-4.68,-4.48,1.68,1.68,1.68
-7.85,-4.47,-4.47,2.38,2.52,2.52
-7.74,-4.38,-4.41,3.29,3.71,3.71
-7.83,-4.31,-4.38,4.97,5.39,5.39
-7.92,-4.23,-4.40,6.86,6.86,7.28
-7.80,-4.14,-4.39,7.98,8.26,8.26
-7.64,-4.07,-4.43,8.75,8.75,8.89
-7.58,-4.04,-4.47,9.24,9.24,9.24
-7.57,-4.01,-4.52,10.01,10.01,10.01
-7.51,-4.02,-4.58,10.50,10.50,10.64
-7.37,-4.02,-4.64,10.64,10.64,10.64
-7.24,-4.10,-4.72,10.36,10.29,10.29
-7.28,-4.26,-4.84,10.29,10.29,10.15
-7.33,-4.49,-5.04,10.50,10.50,10.50
-7.44,-4.57,-5.03,8.19,8.05,8.05
-7.52,-4.57,-5.00,7.07,6.58,6.58
-7.60,-4.50,-4.91,5.74,5.53,5.11
-7.53,-4.46,-4.82,3.71,3.50,3.50
-7.32,-4.40,-4.78,1.96,1.89,1.89
-7.08,-4.35,-4.72,0.91,0.42,0.42
-6.81,-4.33,-4.61,-0.28,-0.28,-0.28
-6.61,-4.33,-4.51,-0.49,-0.42,-0.42
-6.34,-4.44,-4.47,-0.07,0.42,0.42
-6.19,-4.52,-4.37,1.54,1.54,1.75
-5.89,-4.57,-4.35,3.50,3.50,3.50
-5.62,-4.53,-4.34,4.97,5.25,5.25
-5.26,-4.59,-4.37,6.58,6.79,6.79
-5.03,-4.71,-4.44,8.33,8.33,8.33
-4.88,-4.69,-4.43,9.73,9.73,9.73
-4.69,-4.60,-4.44,10.43,10.43,10.43