aX,aY,aZ,gX,gY,gZ
-5.36,2.34,-8.17,28.63,28.63,28.63
-5.44,2.31,-8.31,22.12,21.42,21.42
-5.16,2.26,-8.39,17.71,15.40,15.40
-5.07,2.34,-8.51,9.94,9.10,9.10
-5.38,2.47,-8.49,3.50,2.87,2.87
-5.85,2.47,-8.48,-0.14,-0.14,-0.14
-5.86,2.15,-8.31,-2.45,-2.45,-2.45
-5.60,2.04,-8.40,-3.15,-3.15,-3.01
-5.25,1.86,-8.42,-2.45,-1.89,-1.61
-5.13,1.54,-8.60,0.28,0.28,0.84
-4.73,1.16,-8.76,5.74,5.74,6.30
-4.28,0.87,-8.86,11.76,11.76,12.74
-4.12,0.85,-8.80,16.66,16.66,18.83
-4.30,0.91,-8.71,23.52,23.52,23.52
-4.39,0.92,-8.58,28.07,28.07,28.07
-4.34,0.95,-8.78,32.62,32.62,32.62
-4.36,1.14,-8.90,33.67,33.53,33.53
-4.33,1.50,-9.17,31.71,31.71,31.29
-4.19,1.87,-9.41,26.46,25.69,25.69
-4.07,2.07,-9.61,19.11,17.99,17.99
-3.92,2.16,-9.59,7.84,7.84,6.58
-3.67,1.99,-9.49,-1.68,-1.68,-2.66
-3.35,1.53,-9.56,-8.05,-8.05,-8.68
-3.14,1.19,-9.67,-11.76,-11.76,-11.97
-3.12,0.98,-9.51,-11.83,-11.83,-11.83
-3.09,0.83,-9.30,-10.85,-10.85,-10.85
-3.06,0.81,-8.87,-10.08,-10.08,-10.08
-2.97,0.41,-8.73,-3.64,-3.64,-2.52
-2.58,0.93,-8.98,18.97,18.97,19.04
-2.40,0.93,-9.91,20.09,20.09,20.09
-3.29,0.91,-11.22,26.53,26.53,26.53
-4.14,1.34,-11.33,25.76,25.76,25.76
-4.68,1.56,-11.08,19.46,18.41,18.41
-4.58,1.64,-10.83,12.46,11.06,8.33
-4.24,1.65,-10.39,0.98,-0.49,-3.64
-3.01,1.25,-9.42,-28.77,-28.77,-28.77
-2.34,1.06,-9.15,-36.33,-38.43,-38.43
-1.59,0.77,-8.86,-44.10,-44.73,-44.73
-1.18,0.55,-8.65,-47.53,-47.74,-47.74
-1.26,0.34,-8.75,-34.37,-32.76,-32.76
-1.57,0.39,-8.74,-23.66,-22.12,-22.12
-1.97,0.27,-8.74,-8.96,-8.96,-8.96
-2.32,0.29,-8.63,5.32,6.72,6.72
-2.80,0.36,-8.57,14.56,15.75,15.75
-3.20,0.62,-8.68,23.52,23.52,24.15
-3.42,1.01,-8.99,26.46,26.46,26.67
-3.42,1.23,-9.38,26.25,26.25,26.25
-3.40,1.42,-9.66,23.94,23.94,23.94
-3.23,1.54,-9.96,19.81,19.81,19.81
-2.89,1.51,-10.26,12.88,12.88,12.88
-2.46,1.43,-10.31,8.26,6.65,6.65
-2.15,1.41,-10.32,1.68,-0.14,-0.14
-2.01,1.45,-10.22,-5.60,-5.60,-7.49
-2.01,1.51,-10.03,-12.81,-12.81,-12.81
-2.08,1.44,-9.73,-19.95,-19.95,-19.95
-2.11,1.31,-9.66,-22.68,-22.68,-22.68
-2.07,1.06,-9.74,-21.28,-20.79,-20.79
-2.35,0.88,-9.71,-17.08,-17.08,-16.31
-2.65,0.69,-9.63,-8.96,-8.96,-8.96
-2.95,0.65,-9.50,-1.89,-1.89,-1.89
-3.12,0.78,-9.51,4.34,4.34,4.34
-3.16,0.89,-9.54,8.40,9.52,9.52
-3.06,0.96,-9.67,12.46,12.46,13.16
-2.80,0.94,-9.91,15.12,15.12,15.12
-2.55,1.02,-10.11,16.52,16.52,16.52
-2.34,1.08,-10.19,15.96,15.96,15.96
-2.20,1.21,-10.10,14.56,14.56,14.56
-2.33,1.21,-9.98,12.67,12.67,12.67
-2.47,1.37,-9.68,9.24,8.82,8.82
-2.75,1.60,-9.45,6.09,4.48,4.48
-2.91,1.67,-9.19,1.82,1.12,0.14
-2.94,1.47,-8.98,-2.94,-2.94,-3.29
-2.84,1.21,-8.98,-4.62,-4.62,-4.69
-2.67,0.91,-9.04,-4.48,-4.48,-4.48
-2.59,0.60,-9.04,-3.36,-3.01,-3.01
-2.62,0.41,-8.98,-1.47,-1.33,-1.33
-2.63,0.48,-9.10,0.56,0.56,0.91
-2.66,0.54,-9.33,3.15,3.15,3.50
-2.85,0.67,-9.57,5.32,5.32,5.60
-3.01,0.70,-9.78,7.98,7.98,7.98
-3.11,0.72,-9.98,9.10,9.10,9.10
-3.27,0.80,-10.35,9.73,9.73,9.73
-3.49,1.01,-10.67,9.24,8.89,8.89
-4.02,1.37,-10.71,6.65,6.65,6.65
-4.52,1.67,-10.54,0.42,0.42,0.42
-4.81,1.74,-10.39,-4.27,-5.11,-5.11
-4.95,1.76,-9.92,-12.60,-12.60,-13.44
-4.83,1.71,-9.56,-17.92,-19.60,-19.60
-4.59,1.56,-9.29,-24.50,-24.50,-25.90
-4.23,1.31,-9.18,-29.68,-29.68,-30.31
-3.82,0.96,-9.27,-31.50,-31.50,-31.50
-3.48,0.72,-9.20,-29.82,-29.82,-29.82
-3.25,0.65,-9.04,-27.02,-27.02,-27.02
-3.27,0.70,-8.70,-22.54,-21.98,-21.98
-3.39,0.76,-8.52,-18.34,-0.42,-17.78
-3.59,0.85,-8.50,-14.14,-13.44,-13.44
-3.84,0.97,-8.60,-8.19,-8.19,-7.77
-4.20,2.44,-8.62,-5.32,-5.32,-4.97
-4.63,1.46,-8.61,-4.34,-4.34,-4.34
-4.95,1.72,-8.46,-5.95,-5.95,-5.95
-5.16,1.87,-8.35,-8.89,-8.89,-8.89
-5.38,1.96,-8.34,-11.34,-11.34,-12.18
-5.51,2.01,-8.37,-14.70,-14.70,-14.70
-5.64,1.96,-8.38,-18.41,-18.41,-18.41
-5.65,1.90,-8.29,-20.37,-20.37,-20.37
-5.66,1.87,-8.19,-21.63,-21.63,-21.63
-5.67,1.95,-8.05,-22.61,-22.96,-22.96
-5.65,1.82,-8.05,-23.17,-23.10,-23.10
-5.70,1.67,-8.10,-21.07,-20.65,-20.65
-5.86,1.72,-8.11,-17.71,-17.36,-17.36
-6.10,1.96,-7.89,-15.54,-15.33,-15.33
-6.30,2.03,-7.73,-14.63,-14.63,-14.63
-6.53,2.06,-7.53,-13.65,-13.65,-13.51
-6.72,2.19,-7.49,-13.30,-13.30,-13.23
-7.17,2.47,-7.45,-15.54,-16.10,-16.10
-7.50,2.61,-7.46,-18.34,-18.34,-18.34
-7.70,2.61,-7.49,-21.21,-21.21,-21.21
-7.71,2.64,-7.44,-22.12,-22.26,-22.26
-7.89,2.60,-7.37,-22.96,-23.10,-23.38
-8.24,2.79,-7.24,-24.85,-24.99,-24.99
-8.29,2.80,-7.14,-26.81,-27.02,-27.02
-8.32,2.77,-7.05,-28.07,-28.00,-28.00
-8.40,2.68,-6.91,-28.49,-28.49,-28.42
-8.68,2.76,-6.72,-29.19,-29.19,-29.19
-8.71,2.72,-6.61,-30.17,-30.17,-30.17
-8.60,2.75,-6.33,-30.94,-30.94,-30.94
-8.63,2.85,-5.77,-32.48,-32.69,-32.69
-8.42,3.04,-5.04,-41.02,-41.44,-41.44
-8.20,3.39,-4.80,-47.46,-47.46,-47.88
-7.89,3.36,-4.55,-51.03,-52.08,-52.08
-7.12,3.18,-3.73,-56.14,-56.70,-56.70
-6.56,3.07,-2.96,-61.04,-61.04,-61.39
-6.24,2.95,-2.56,-62.51,-62.51,-62.37
-5.96,2.69,-1.90,-61.46,-61.46,-61.46
-5.79,2.25,-0.97,-57.75,-57.75,-57.75
-5.89,2.18,-0.33,-54.11,-54.11,-54.11
-6.32,2.42,-0.01,-50.75,-50.75,-49.56
-6.54,2.53,0.72,-44.87,-44.87,-44.87
-6.70,2.39,1.79,-37.17,-36.05,-36.05
-6.45,2.03,2.54,-28.28,-28.28,-28.28
-6.49,2.61,3.06,-19.46,-19.46,-19.46
-6.31,3.13,3.60,-15.05,-15.05,-15.05
-6.33,2.95,4.58,-9.73,-7.00,-7.00
-6.09,2.82,5.45,-2.03,-1.12,0.77
-5.96,3.55,6.57,5.95,5.95,6.65
-6.31,3.71,6.59,11.90,11.90,11.90
-6.63,4.00,6.49,15.12,16.17,16.17
-7.06,4.40,6.42,18.97,19.25,19.25
-7.60,5.13,6.40,18.41,18.41,17.92
-8.44,5.37,6.06,13.86,13.86,13.86
-8.38,4.94,5.81,12.46,12.46,12.46
-7.66,4.63,5.51,10.08,10.08,10.08
-7.32,4.52,5.25,4.41,4.41,4.41
-7.83,4.37,4.72,-2.38,-2.73,-2.73
-6.44,3.69,4.33,-2.80,-2.80,-2.52
-5.76,2.44,4.19,-1.26,-0.84,-0.35
-7.29,1.69,3.78,2.94,2.94,2.94
-7.92,2.08,3.38,6.30,6.58,6.58
-8.15,2.62,3.19,6.02,5.67,5.11
-8.58,2.87,3.08,2.94,2.94,2.80
-9.49,2.57,3.03,1.89,1.89,1.89
-9.80,2.07,2.79,3.43,3.85,3.85
-9.40,2.06,2.29,8.54,8.54,9.10
-9.26,2.78,2.08,10.64,10.64,10.64
-9.40,2.96,1.95,9.45,9.80,9.80
-9.48,2.26,1.94,13.37,13.37,13.37
-8.96,2.41,1.36,17.50,17.50,17.50
-9.04,2.09,1.08,24.08,24.08,24.08
-9.00,2.48,0.93,27.16,27.93,27.93
-8.64,2.81,1.12,28.70,28.70,28.63
-8.87,3.01,1.23,27.16,27.16,27.16
-9.03,3.06,1.02,25.83,25.27,25.27
-8.58,3.07,0.62,23.31,22.61,22.61
-8.31,3.14,0.37,20.65,20.65,20.09
-8.58,3.33,0.38,17.99,17.99,17.99
-8.64,3.49,0.31,15.54,15.19,15.19
-8.44,3.16,-0.02,13.58,13.58,13.58
-8.35,3.00,-0.23,14.21,14.35,14.35
-8.41,3.06,-0.17,14.77,14.77,14.77
-8.27,3.42,-0.45,13.16,12.74,12.74
-7.85,3.40,-1.07,10.71,10.29,10.29
-7.63,2.92,-1.63,8.19,8.12,8.12
-7.50,2.68,-1.95,6.93,6.93,6.93
-7.78,2.99,-1.89,5.88,5.32,5.11
-8.04,3.18,-2.08,3.57,3.57,3.57
-7.78,2.78,-2.46,3.22,3.43,3.85
-7.61,2.31,-2.71,5.88,6.58,7.70
-7.64,2.30,-3.08,11.27,12.11,12.11
-7.91,2.60,-3.41,18.90,18.90,19.74
-8.26,2.58,-3.76,26.46,26.46,26.46
-8.31,2.30,-4.15,33.39,34.44,34.44
-8.19,2.26,-4.55,44.03,44.03,45.01
-7.98,2.63,-5.09,49.00,49.00,49.42
-7.58,2.62,-5.75,51.10,51.10,51.10
-7.22,2.21,-6.06,52.78,52.78,52.78
-7.07,2.34,-6.47,53.83,53.83,53.76
-6.81,2.66,-6.95,49.28,49.28,48.37
-6.49,2.67,-7.23,41.44,41.44,41.44
-6.39,2.35,-7.74,33.25,33.25,33.25
-6.58,2.18,-8.60,28.00,27.58,27.58
-6.64,2.65,-9.05,23.38,22.61,22.61
-6.38,3.12,-8.86,12.60,12.60,11.27
-6.04,2.40,-8.67,6.30,6.30,5.74
-6.03,1.51,-8.55,6.16,6.16,6.16
-5.87,1.23,-8.74,11.20,11.20,11.20
-5.65,1.54,-8.93,14.07,14.35,14.35
-5.38,1.64,-9.25,15.82,15.82,16.10
-5.28,1.35,-9.44,17.85,17.85,19.32
-5.34,1.05,-9.46,22.89,22.89,23.52
-5.19,1.08,-9.50,25.76,25.76,25.97
-4.58,1.31,-9.45,26.39,26.18,26.18
-3.48,0.65,-9.29,24.50,24.50,24.36
-3.04,0.80,-9.32,23.03,23.03,23.03
-2.91,1.15,-9.36,17.29,17.29,17.29
-2.62,1.39,-9.31,11.83,9.87,9.87
-2.06,1.24,-9.39,0.00,0.00,0.00
-2.08,0.68,-9.61,3.43,3.43,3.43
-2.12,0.21,-9.99,11.20,11.20,11.20
-2.47,-0.08,-10.38,21.35,21.35,21.35
-2.77,-0.07,-10.74,29.75,29.75,29.75
-2.88,0.18,-10.97,38.50,39.27,39.27
-3.23,0.38,-10.98,42.28,42.63,42.63
-3.08,0.28,-10.82,43.75,43.75,43.82
-2.79,0.16,-10.79,43.19,42.28,42.07
-3.00,0.34,-10.58,37.80,37.80,37.80
-3.19,0.91,-10.54,24.36,24.36,24.36
-2.46,0.79,-10.69,0.70,-2.24,-2.24
-1.81,0.57,-10.59,-9.59,-9.59,-11.55
-1.16,0.39,-10.59,-15.75,-15.75,-15.75
-0.77,0.17,-10.35,-18.06,-18.06,-18.06
-0.60,-0.10,-9.98,-15.68,-15.68,-15.68
-0.24,-0.34,-9.82,-11.20,-11.20,-11.20
-0.15,-0.44,-9.54,-4.06,-4.06,-3.29
-0.33,-0.41,-9.27,4.34,4.34,4.34
-0.44,-0.40,-9.28,8.68,10.08,10.08
-0.36,-0.39,-9.34,13.93,13.93,13.93
-0.45,-0.35,-9.45,15.89,15.89,15.89
-0.79,-0.27,-9.60,16.03,16.03,16.03
-1.03,-0.27,-9.83,14.98,14.84,14.42
-1.06,-0.28,-10.26,13.65,13.65,13.51
-1.10,-0.42,-11.05,14.14,14.49,14.91
-1.43,-0.39,-11.83,16.38,16.73,16.73
-1.99,-0.35,-12.13,18.69,18.90,18.90
-2.22,-0.31,-12.07,19.25,19.32,19.32
-2.51,-0.23,-11.91,18.83,18.83,18.83
-2.82,-0.08,-11.74,15.47,14.70,14.70
-2.86,0.24,-11.82,7.70,7.70,6.37
-2.74,0.43,-12.08,-3.36,-3.36,-3.36
-2.56,0.52,-12.39,-17.50,-19.11,-19.11
-2.39,0.58,-12.38,-27.23,-30.45,-30.45
-2.38,0.54,-12.18,-38.99,-40.32,-40.32
-2.43,0.44,-11.86,-50.96,-52.01,-52.01
-2.47,0.35,-11.52,-57.75,-57.75,-57.75
-2.57,0.21,-11.12,-62.79,-62.79,-62.79
-2.47,0.15,-10.79,-65.31,-65.31,-65.31
-2.44,0.11,-10.42,-64.12,-64.12,-64.12
-2.52,-0.11,-10.19,-59.99,-59.99,-58.24
-2.67,-0.22,-10.07,-51.17,-50.12,-50.12
-2.88,-0.03,-10.06,-40.95,-40.95,-40.04
-3.25,0.31,-10.04,-36.12,-34.93,-34.44
-3.77,0.67,-9.78,-32.27,-32.27,-31.29
-4.38,0.81,-9.44,-29.89,-29.89,-28.98
-4.88,0.97,-9.32,-27.58,-27.58,-27.16
-5.20,1.30,-9.31,-25.62,-25.62,-25.76
-5.40,1.65,-9.38,-26.95,-26.95,-27.16
-5.76,1.97,-9.43,-31.08,-31.08,-31.71
-6.00,2.21,-9.43,-36.96,-36.96,-37.73
-6.07,2.26,-9.20,-41.58,-43.26,-44.03
-6.08,2.33,-8.69,-48.09,-48.09,-49.77
-6.03,2.34,-8.30,-56.14,-56.14,-56.14
-6.07,2.46,-7.72,-63.07,-63.49,-63.49
-6.10,2.61,-7.38,-68.18,-68.18,-68.18
-6.03,2.71,-6.81,-72.38,-72.94,-72.94
-5.78,2.68,-6.42,-75.81,-75.81,-75.81
-5.60,2.66,-5.82,-75.39,-75.39,-75.39
-5.50,2.68,-5.13,-72.87,-72.87,-72.87
-5.72,2.67,-4.61,-69.37,-69.37,-69.37
-6.48,3.52,-3.17,-61.11,-61.11,-61.11
-6.59,3.61,-2.79,-62.09,-62.09,-62.09
-6.62,3.44,-1.84,-64.12,-64.40,-64.40
-6.61,3.44,-1.30,-65.52,-65.94,-65.94
-6.80,3.70,-1.00,-66.50,-66.50,-66.57
-6.95,3.70,0.44,-64.54,-64.33,-64.33
-6.91,3.60,1.09,-62.37,-61.74,-61.74
-6.49,3.21,1.71,-56.35,-55.16,-55.16
-5.99,2.96,2.64,-44.17,-44.17,-43.12
-5.55,3.01,3.47,-38.43,-37.03,-35.98
-4.55,2.54,5.12,-30.87,-29.96,-29.96
-4.29,2.47,6.14,-21.56,-21.56,-17.43
-4.11,2.58,6.80,-10.08,-10.08,-5.88
-4.04,3.05,7.19,1.89,1.89,2.73
-4.29,3.50,7.95,7.49,8.68,8.68
-4.34,3.86,8.24,11.06,11.06,11.34
-5.52,4.47,8.35,12.18,12.18,12.18
-6.34,5.47,8.21,7.91,6.72,6.72
-7.25,4.93,8.16,5.04,5.04,4.69
-7.43,4.88,7.88,2.24,2.24,2.24
-7.71,4.57,7.72,0.28,0.28,0.28
-7.61,4.40,7.47,-0.42,-0.28,-0.28
-7.33,4.14,6.92,0.91,0.91,1.12
-6.87,3.81,6.64,3.99,3.99,3.99
-6.47,3.50,6.34,6.86,6.86,6.86
-6.48,3.32,5.78,13.65,13.65,13.65
-6.29,2.99,5.09,21.07,22.05,22.05
-6.69,3.19,4.77,23.66,23.87,23.87
-7.14,3.29,4.61,25.55,25.97,25.97
-7.21,3.07,4.10,30.59,30.59,31.15
-6.96,2.66,3.76,34.16,34.16,36.05
-6.95,2.48,3.45,39.13,39.13,39.83
-7.51,2.90,2.95,45.29,45.29,45.78
-7.80,3.36,2.46,48.65,48.65,49.14
-7.70,3.44,1.97,50.54,50.54,50.82
-7.58,3.30,1.54,51.87,51.87,52.08
-7.62,3.24,1.15,52.64,52.64,52.64
-7.70,3.85,-0.39,43.68,43.68,43.68
-8.24,3.49,-1.73,37.24,36.96,36.96
-8.31,3.63,-2.36,32.90,32.90,32.34
-8.43,3.70,-2.61,29.33,28.14,27.44
-8.60,3.68,-2.91,23.03,23.03,22.40
-8.49,3.61,-3.14,17.92,17.92,17.43
-8.27,3.50,-3.32,13.93,13.93,13.93
-8.20,3.43,-3.90,9.80,9.38,9.38
-7.75,3.03,-4.23,7.49,7.42,7.42
-7.53,2.41,-4.60,8.89,8.89,9.24
-7.64,2.13,-4.88,11.76,11.76,13.37
-7.59,2.18,-4.98,15.75,15.75,16.31
-7.57,2.01,-5.07,21.42,21.42,22.19
-7.67,1.79,-5.24,28.14,28.14,28.91
-7.93,1.82,-5.41,33.81,33.81,33.81
-7.94,2.11,-5.63,37.45,37.52,37.52
-6.83,2.34,-6.73,28.14,28.14,27.09
-6.29,2.51,-6.96,23.03,23.03,21.42
-5.60,2.10,-7.23,17.08,17.08,17.08
-5.33,1.49,-7.60,17.29,17.29,17.64
-5.14,1.19,-7.79,20.02,20.51,20.51
-5.01,1.36,-8.33,23.94,23.94,24.29
-4.76,1.45,-8.74,26.32,27.37,27.37
-4.70,1.01,-9.06,32.76,33.60,33.60
-4.63,0.91,-9.28,40.81,40.81,41.37
-4.71,1.10,-9.41,44.10,44.10,44.10
-4.61,1.42,-9.74,45.08,45.08,45.08
-4.46,1.31,-10.32,45.78,45.78,45.78
-4.47,1.18,-10.40,45.85,45.85,45.85
-4.31,1.24,-10.09,43.75,43.75,43.75
-4.07,1.34,-10.02,37.24,36.33,36.33
-3.76,1.21,-10.27,29.47,29.47,29.47
-3.49,0.89,-10.49,26.04,26.04,25.55
-3.35,0.73,-10.83,22.61,22.61,22.61
-3.32,0.88,-10.90,20.51,19.53,19.53
-3.34,0.86,-10.87,16.59,16.59,15.61
-3.13,0.75,-10.84,12.60,12.60,12.60
-2.95,0.58,-10.61,7.14,7.14,7.14
-2.55,0.72,-10.11,-3.01,-3.01,-3.01
-2.34,0.54,-10.45,-4.90,-4.90,-4.90
-2.35,0.24,-10.76,-1.75,-1.75,-1.75
-2.34,0.16,-10.86,4.97,4.97,4.97
-2.23,-0.14,-10.74,13.44,13.44,13.44
-2.07,-0.20,-10.49,17.99,18.69,18.69
-2.00,-0.04,-10.17,22.05,22.33,22.33
-1.84,0.14,-9.72,23.17,23.17,23.03
-1.45,0.24,-9.59,21.91,21.28,21.00
-1.09,0.25,-9.44,18.69,18.69,17.15
-0.85,0.35,-9.33,14.07,14.07,13.37
-0.60,0.51,-9.27,8.12,8.12,7.42
-0.37,0.45,-9.38,1.89,1.89,1.12
-0.32,0.36,-9.57,-5.81,-5.81,-5.81
-0.28,0.33,-9.81,-11.69,-11.69,-11.69
-0.30,0.26,-10.03,-15.96,-15.96,-17.22
-0.52,0.15,-10.32,-20.02,-20.02,-20.02
-0.91,0.11,-10.55,-22.05,-22.05,-22.05
-1.41,0.16,-10.66,-21.42,-21.42,-21.42
-1.88,0.20,-10.69,-18.13,-18.13,-18.13
-2.29,0.21,-10.65,-15.26,-14.07,-14.07
-2.42,0.11,-10.65,-9.94,-9.94,-8.33
-2.27,-0.11,-10.65,-2.03,-1.12,-1.12
-1.79,-0.18,-10.58,5.18,6.09,6.09
-1.35,-0.34,-10.61,14.07,14.07,15.05
-1.06,-0.34,-10.94,19.11,20.65,21.49
-1.00,-0.29,-11.32,24.85,25.76,25.76
-1.24,-0.00,-11.34,27.72,27.72,27.79
-1.97,0.78,-11.93,20.86,20.86,20.86
-2.38,1.44,-11.99,8.61,8.61,8.61
-2.77,1.90,-11.75,-1.61,-5.39,-5.39
-2.96,1.78,-11.20,-18.48,-18.48,-18.48
-2.60,1.20,-10.57,-59.64,-62.02,-62.02
-2.39,0.81,-10.50,-66.92,-67.62,-67.62
-2.23,0.13,-10.67,-65.45,-65.45,-64.54
-2.18,-0.25,-10.88,-51.10,-51.10,-51.10
-2.32,-0.03,-11.03,-39.41,-39.41,-39.41
-2.63,0.24,-11.20,-28.63,-28.63,-26.11
-3.10,0.71,-11.05,-19.39,-18.76,-18.76
-3.82,1.16,-10.54,-16.52,-16.52,-16.52
-4.63,1.75,-10.34,-35.63,-18.06,-18.06
-5.13,2.06,-10.41,-22.33,-23.24,-23.24
-5.36,2.30,-10.47,-32.06,-32.06,-33.11
-5.33,2.31,-10.46,-40.11,-40.11,-41.02
-5.38,2.17,-10.21,-46.76,-46.76,-47.46
-5.48,2.10,-9.91,-53.55,-53.55,-53.55
-5.56,2.16,-9.76,-57.89,-59.22,-59.22
-5.00,2.35,-8.58,-80.57,-80.57,-80.57
-4.95,2.32,-8.12,-87.22,-87.22,-87.22
-5.04,2.23,-7.63,-89.18,-89.60,-89.60
-5.34,2.33,-6.60,-91.35,-91.35,-91.35
-5.73,2.41,-6.09,-92.33,-92.33,-92.33
-6.00,2.44,-5.27,-90.93,-90.93,-90.93
-6.53,2.73,-4.86,-88.97,-88.97,-88.97
-6.94,3.32,-4.40,-85.68,-85.68,-85.68
-6.88,3.54,-4.05,-84.91,-84.98,-84.98
-6.84,3.51,-3.55,-86.10,-86.45,-86.45
-5.47,3.20,-1.78,-99.12,-99.12,-99.12
-5.56,2.98,-0.49,-103.74,-103.74,-104.09
-5.28,2.43,0.45,-104.58,-104.58,-104.09
-5.03,1.54,1.86,-97.37,-97.37,-97.37
-4.71,0.66,3.84,-80.15,-77.84,-77.84
-4.40,0.37,4.55,-65.94,-58.94,-58.94
-3.59,0.35,5.52,-47.39,-42.49,-40.11
-2.44,0.53,6.89,-21.77,-21.77,-21.77
-2.67,2.33,7.99,-0.56,-0.56,1.75
-3.47,2.05,8.55,13.58,13.58,13.58
-4.23,2.30,9.28,22.96,22.96,22.96
-5.43,3.17,9.68,26.88,26.88,26.88
-6.66,3.65,9.60,26.53,26.53,26.53
-7.30,4.03,9.45,22.96,22.40,22.40
-7.46,4.14,9.37,17.85,17.22,17.22
-6.96,3.75,9.03,13.23,12.81,12.81
-6.18,3.30,8.64,11.20,11.20,11.34
-5.67,3.07,8.45,12.60,13.30,13.30
-5.38,2.98,8.20,15.82,15.82,16.59
-5.31,3.04,7.89,18.62,18.62,18.62
-5.11,2.71,7.62,23.52,23.52,23.52
-5.04,2.30,7.32,30.59,30.59,30.59
-5.54,2.36,6.32,44.17,44.17,44.73
-6.41,2.71,5.87,47.46,47.46,47.74
-6.96,2.83,5.49,49.07,49.63,49.91
-6.92,2.67,4.89,51.59,51.94,51.94
-7.03,2.49,4.00,54.60,54.60,54.88
-7.33,2.54,3.38,55.23,55.23,55.23
-7.58,2.69,2.77,52.78,52.78,52.78
-7.93,2.80,2.25,49.00,49.00,49.00
-8.22,2.66,1.87,45.43,45.15,45.15
-8.49,2.75,1.61,45.08,45.01,45.01
-8.46,2.97,1.15,45.57,45.57,45.57
-8.38,3.12,0.53,46.97,46.97,46.97
-8.32,3.30,-0.12,48.79,49.07,49.07
-8.05,3.40,-0.60,50.54,50.89,50.89
-7.93,3.51,-1.20,51.52,51.45,51.45
-8.09,3.72,-1.68,49.84,49.56,49.56
-7.88,3.59,-2.19,47.88,47.74,47.74
-7.83,3.00,-2.69,47.25,47.25,47.25
-8.24,3.04,-2.81,47.46,47.46,47.46
-8.48,3.50,-2.83,45.85,45.85,45.15
-8.50,3.45,-3.48,43.19,43.12,43.12
-8.22,3.05,-4.43,42.91,42.91,42.84
-8.10,2.65,-4.48,42.21,42.21,41.93
-8.25,2.64,-4.21,38.57,38.57,38.57
-8.21,2.93,-4.18,30.66,30.66,29.61
-7.51,2.46,-5.40,17.64,17.64,17.64
-7.69,2.69,-5.72,14.28,13.65,13.65
-7.29,2.72,-6.05,8.61,8.61,8.40
-7.01,2.55,-6.25,8.05,8.05,8.96
-6.82,2.73,-6.92,11.97,11.97,11.97
-6.82,2.58,-6.70,15.75,15.75,15.75
-6.64,2.19,-6.54,18.34,18.34,19.46
-6.74,1.70,-6.47,24.22,24.22,24.22
-6.37,1.97,-6.78,33.32,33.32,33.32
-6.21,2.32,-6.86,37.38,37.94,37.94
-6.18,2.46,-7.15,42.14,42.14,42.70
-5.93,2.02,-7.47,47.32,47.32,48.30
-5.32,1.52,-8.00,54.46,54.46,55.37
-5.08,1.75,-8.68,60.62,60.62,60.62
-4.91,2.16,-9.14,57.82,57.82,57.82
-5.02,2.18,-9.37,52.36,52.36,52.36
-5.04,2.11,-9.78,48.23,46.62,46.62
-5.16,2.23,-10.17,40.53,39.76,39.76
-5.23,2.12,-9.94,30.03,30.03,28.91
-4.91,1.90,-9.67,22.54,20.02,18.90
-4.44,1.88,-9.47,11.83,10.85,10.85
-4.13,1.85,-9.39,1.96,1.96,1.26
-3.93,1.44,-9.76,-1.12,-1.12,-0.98
-3.93,0.84,-9.89,1.61,1.61,1.61
-3.83,0.43,-10.35,7.49,7.49,10.01
-3.51,0.24,-10.75,14.28,14.28,15.19
-3.15,0.24,-10.89,21.21,21.21,21.84
-3.44,0.52,-10.69,23.59,23.59,23.59
-3.64,0.78,-10.35,24.43,24.50,24.50
-3.51,0.82,-10.18,24.29,24.22,24.22
-3.29,0.70,-9.99,24.29,24.43,24.43
-3.21,0.65,-10.03,24.29,24.08,24.08
-3.13,0.80,-10.25,22.40,21.91,20.79
-2.84,0.91,-10.47,16.24,16.24,15.61
-2.44,0.96,-10.60,8.89,8.89,8.89
-1.95,0.96,-10.62,4.34,4.34,4.34
-1.83,0.75,-10.56,-1.75,-1.75,-1.75
-1.99,0.64,-10.67,-5.74,-5.74,-5.74
-2.22,0.53,-10.72,-8.54,-8.54,-8.54
-2.27,0.36,-10.70,-9.03,-8.89,-8.89
-2.40,0.11,-10.51,-7.42,-6.65,-6.65
-2.51,-0.21,-10.49,-3.57,-3.57,-3.57
-2.67,-0.49,-10.82,4.83,4.83,4.83
-2.97,-0.65,-11.43,14.42,14.42,14.42
-3.28,-0.55,-12.16,23.80,23.80,23.80
-3.57,0.30,-12.76,25.06,23.94,23.94
-3.91,1.04,-12.94,16.80,16.80,13.23
-4.35,1.52,-12.19,-4.13,-4.13,-4.13
-4.80,2.23,-11.01,-50.75,-50.75,-50.75
-4.45,1.91,-10.75,-72.59,-72.59,-72.59
-3.90,1.49,-10.58,-87.15,-87.15,-87.15
-3.38,1.06,-10.46,-94.01,-94.01,-94.01
-3.02,0.80,-10.31,-94.78,-94.78,-94.01
-2.72,0.28,-10.11,-88.20,-88.20,-84.84
-2.98,-0.54,-9.81,-65.73,-65.73,-65.73
-3.40,-0.33,-9.53,-41.09,-41.09,-41.09
-4.14,0.26,-9.16,-18.76,-18.76,-16.52
-5.21,0.72,-8.73,-0.14,-0.14,-0.14
-5.88,1.22,-8.79,6.65,7.35,7.35
-6.16,1.71,-8.98,10.71,10.71,10.85
-6.42,2.06,-8.94,8.33,8.33,7.63
-6.56,2.24,-8.85,1.54,1.54,1.54
-6.70,2.32,-8.73,-10.99,-12.46,-12.46
-6.68,2.36,-8.70,-21.91,-23.45,-23.45
-6.67,2.56,-8.32,-38.92,-38.92,-40.67
-6.70,2.69,-8.08,-50.47,-50.47,-51.94
-6.84,2.87,-7.85,-64.33,-64.33,-64.33
-6.84,2.89,-7.56,-73.29,-73.29,-73.29
-6.99,2.68,-6.98,-80.64,-80.64,-80.64
-7.23,2.51,-6.50,-79.94,-79.94,-79.94
-7.30,3.00,-5.91,-79.10,-79.10,-79.10
-7.32,3.23,-5.48,-80.71,-80.71,-81.06
-7.48,3.25,-5.10,-82.39,-82.67,-82.67
-7.37,3.02,-4.25,-84.07,-84.07,-84.14
-7.15,2.84,-3.85,-84.42,-84.42,-84.42
-7.07,2.71,-3.37,-84.77,-85.40,-85.40
-7.13,3.09,-2.68,-88.83,-89.67,-89.67
-7.21,3.43,-1.79,-98.35,-98.35,-99.40
-6.99,3.32,-1.11,-106.61,-106.61,-107.52
-6.63,3.19,-0.74,-113.19,-113.19,-113.96
-5.65,3.02,-0.22,-116.90,-116.90,-117.18
-4.47,2.47,0.79,-116.48,-116.48,-116.13
-3.27,1.69,2.36,-110.60,-110.60,-110.60
-1.20,0.09,4.06,-103.60,-103.60,-103.60
-0.53,-1.05,6.03,-86.24,-86.24,-86.24
-0.55,-1.13,7.59,-54.46,-54.46,-54.46
-1.07,-0.57,8.75,-32.06,-32.06,-32.06
-2.54,0.68,9.85,-16.73,-16.73,-16.73
-4.60,1.21,10.90,5.81,5.81,5.81
-5.61,2.40,11.00,21.35,21.35,21.35
-6.06,3.34,10.86,27.72,27.72,27.72
-5.96,3.40,11.05,29.19,29.33,29.47
-5.58,2.54,11.11,30.52,30.73,30.73
-5.04,2.94,10.80,30.94,30.73,30.73
-5.25,3.55,10.36,27.93,27.79,27.79
-4.81,4.01,9.78,23.94,23.52,23.52
-4.17,3.68,9.44,21.07,20.72,20.72
-4.08,3.34,9.16,19.67,19.67,19.67
-4.35,2.91,8.87,19.95,19.95,19.95
-4.53,2.85,8.53,20.30,20.51,20.51
-4.77,2.90,8.15,20.93,20.93,21.07
-5.05,3.04,7.76,21.84,21.91,21.91
-5.65,2.79,6.94,32.41,32.41,32.41
-5.85,2.82,6.60,36.96,37.80,37.80
-6.06,2.99,6.24,40.95,42.84,42.84
-6.37,3.02,5.70,45.64,46.83,47.25
-7.13,3.49,4.55,50.47,50.47,50.47
-7.30,3.52,4.09,51.80,51.80,51.80
-7.44,3.57,3.47,54.74,54.74,54.74
-7.57,3.77,2.96,56.28,56.28,56.28
-7.81,3.96,2.51,56.70,56.77,56.77
-7.96,4.31,1.76,56.77,56.77,56.84
-7.76,4.24,1.18,57.47,57.47,57.47
-7.53,4.08,0.48,58.80,58.80,58.80
-7.49,3.98,0.14,58.66,58.31,58.31
-7.56,3.98,-0.43,56.49,56.21,56.21
-7.80,4.07,-0.96,53.34,53.34,53.06
-8.07,4.06,-1.26,51.59,51.59,51.38
-8.16,4.01,-1.56,49.77,49.77,49.07
-8.40,4.03,-1.80,46.90,46.90,46.90
-8.54,4.13,-2.15,42.77,42.77,42.77
-8.43,4.11,-2.25,40.53,40.53,40.53
-8.37,3.98,-2.46,40.60,40.60,40.60
-8.37,3.73,-2.58,41.58,41.58,41.58
-8.18,3.43,-2.62,41.65,41.65,41.65
-7.97,3.13,-3.00,41.02,41.02,41.02
-7.88,2.93,-3.65,42.07,42.07,42.28
-7.96,2.84,-4.24,43.47,43.47,43.68
-7.60,2.78,-4.89,42.77,42.49,42.49
-7.50,2.63,-5.19,40.81,40.46,40.46
-7.77,2.43,-5.59,39.41,39.41,39.20
-7.67,2.32,-5.88,37.03,37.03,36.68
-7.59,2.33,-5.97,33.53,33.53,33.53
-7.49,2.33,-5.90,29.47,29.47,29.47
-7.55,2.28,-5.96,26.04,26.04,26.04
-7.37,2.08,-6.13,24.92,24.92,24.71
-7.28,1.80,-6.41,25.83,25.83,25.83
-7.14,1.74,-6.57,27.65,27.65,27.65
-6.91,1.70,-6.62,27.23,27.23,27.23
-6.84,1.55,-6.88,27.65,27.65,27.65
-6.95,1.46,-7.28,28.98,29.40,29.40
-6.93,1.46,-7.67,30.38,30.38,30.38
-6.81,1.43,-7.83,29.26,29.26,29.12
-6.56,1.11,-8.23,27.86,27.86,27.72
-6.53,0.87,-8.40,25.97,25.97,25.97
-6.35,0.85,-8.46,24.71,24.22,24.22
-6.03,0.86,-8.31,22.75,22.75,22.05
-5.64,0.95,-8.18,20.37,20.37,20.37
-5.52,0.86,-8.48,19.18,19.18,19.18
-5.38,1.12,-8.89,12.67,12.67,12.04
-5.09,1.01,-9.06,9.52,8.96,8.89
-5.00,0.66,-9.45,9.52,9.52,10.57
-4.97,0.47,-9.75,12.60,12.60,12.95
-5.02,0.35,-9.86,14.56,14.56,14.77
-4.87,0.24,-9.92,17.64,17.64,17.64
-4.85,0.25,-9.75,18.69,18.69,18.69
-4.84,0.35,-9.37,16.80,16.80,16.80
-4.47,0.36,-9.05,13.93,13.93,13.93
-4.10,0.35,-8.69,8.68,7.98,7.98
-3.76,0.40,-8.57,4.48,2.24,2.24
-3.24,0.45,-8.60,-1.68,-2.38,-3.64
-2.82,0.25,-8.86,-5.95,-6.09,-6.58
-2.75,-0.02,-9.14,-6.09,-5.81,-5.04
-2.73,-0.18,-9.60,-1.54,-1.54,-0.77
-2.62,-0.13,-9.99,3.85,3.85,3.85
-2.52,-0.02,-10.08,6.02,6.58,6.58
-2.49,0.15,-10.11,7.21,7.21,7.07
-2.66,0.42,-9.98,6.44,6.44,5.88
-2.70,0.69,-9.87,3.08,3.08,3.08
-2.83,0.72,-9.84,-1.61,-2.17,-2.17
-2.97,0.67,-10.01,-5.67,-6.02,-6.02
-2.95,0.29,-10.79,-6.02,-5.60,-5.60
-3.15,-0.08,-12.05,3.50,3.50,4.69
-3.65,-0.28,-12.89,13.09,13.09,13.09
-4.07,-0.18,-13.59,21.91,22.75,24.71
-4.58,0.06,-13.46,29.40,29.40,29.89
-4.98,0.18,-13.21,31.43,31.43,31.43
-5.24,0.30,-12.85,30.66,30.66,30.10
-5.32,0.44,-12.33,25.90,25.90,25.90
-5.00,0.75,-12.00,12.25,12.25,12.25
-4.64,1.00,-11.73,-2.38,-2.38,-2.38
-4.16,1.16,-11.50,-19.18,-19.18,-19.18
-3.73,1.34,-11.23,-32.41,-36.75,-36.75
-3.32,1.25,-10.83,-49.63,-49.63,-53.76
-2.88,0.86,-10.41,-67.41,-67.41,-67.41
-2.73,0.54,-10.16,-75.67,-76.58,-78.05
-3.59,-0.10,-9.59,-74.90,-73.78,-73.78
-4.46,0.01,-9.15,-61.53,-61.53,-61.53
-5.45,0.48,-8.78,-50.47,-50.47,-50.47
-6.36,1.16,-8.33,-42.63,-42.63,-42.00
-7.08,1.31,-8.23,-39.41,-39.41,-39.41
-7.65,1.73,-8.51,-37.31,-37.31,-37.31
-8.09,1.92,-8.63,-37.94,-37.94,-37.94
-8.45,2.32,-8.50,-40.53,-40.53,-40.53
-8.48,2.51,-8.06,-48.79,-48.79,-48.79
-8.13,2.59,-7.56,-57.19,-58.59,-58.59
-6.76,2.52,-6.29,-86.17,-86.80,-86.80
-6.32,2.37,-5.66,-90.72,-90.86,-91.07
-6.08,2.29,-4.95,-90.30,-89.88,-89.88
-5.88,2.13,-3.82,-84.07,-83.02,-83.02
-5.75,2.02,-3.05,-75.04,-75.04,-75.04
-5.93,1.91,-2.27,-57.12,-57.12,-57.12
-6.27,2.19,-1.69,-47.67,-46.20,-46.20
-6.88,2.45,-0.92,-36.89,-36.89,-36.26
-7.61,2.68,-0.43,-33.25,-33.25,-33.04
-7.67,2.98,0.05,-33.67,-33.67,-33.67
-7.31,3.12,0.48,-41.37,-41.37,-41.37
-6.76,2.98,1.19,-49.91,-49.91,-49.91
-6.35,2.71,1.69,-55.09,-55.09,-55.09
-5.25,2.41,2.63,-60.34,-60.34,-60.34
-3.54,2.42,3.80,-62.23,-62.23,-62.23
-2.28,2.00,5.33,-58.87,-58.87,-58.87
-0.27,1.50,7.19,-49.00,-49.00,-49.00
0.51,1.45,8.15,-39.34,-39.34,-39.34
0.40,1.24,9.50,-30.73,-30.73,-30.73
-0.16,1.03,10.89,-14.28,-12.11,-12.11
-1.16,1.89,11.36,-1.40,3.29,3.29
-2.77,3.38,11.19,9.10,10.78,10.78
-5.76,3.90,11.05,11.69,11.69,11.69
-6.17,3.71,11.05,15.33,15.33,15.33
-6.80,3.74,10.80,15.26,15.33,15.33
-6.30,3.69,10.26,14.77,14.77,14.49
-5.41,3.45,9.53,14.91,14.91,14.91
-5.13,3.13,9.24,17.43,18.97,18.97
-4.20,2.30,9.00,26.11,26.11,27.37
-3.45,1.85,8.58,39.76,39.76,41.02
-3.48,1.88,8.18,48.37,49.56,49.56
-4.00,2.31,7.35,58.73,58.73,59.64
-4.65,2.64,6.89,63.07,64.26,64.96
-5.24,2.85,6.14,67.20,67.20,67.97
-5.43,2.99,5.30,68.67,68.67,68.74
-5.94,3.38,4.50,67.27,67.27,66.99
-6.57,3.55,4.05,64.82,64.82,64.82
-7.25,3.78,3.50,62.30,61.88,61.88
-7.72,3.94,2.77,59.22,59.08,59.08
-8.32,4.21,0.50,53.27,52.85,52.85
-8.33,4.38,-0.13,49.35,48.37,48.02
-8.37,4.49,-0.80,46.06,46.06,45.08
-8.23,4.39,-1.49,43.54,43.54,43.54
-8.14,4.05,-1.94,41.02,41.02,41.02
-8.03,3.64,-2.19,38.78,37.80,37.80
-7.96,3.66,-2.53,34.37,33.81,33.81
-7.79,3.73,-2.85,28.70,28.70,28.70
-8.04,3.41,-3.07,27.09,26.81,26.81
-8.06,3.18,-3.31,26.88,26.95,26.95
-7.84,3.05,-3.57,27.37,27.37,27.23
-7.59,2.81,-3.80,27.44,27.44,27.51
-7.45,2.64,-4.15,28.77,28.77,29.19
-7.55,2.48,-4.80,33.95,33.95,33.95
-7.54,2.40,-5.02,37.52,37.52,37.52
-7.46,2.55,-5.32,38.99,38.99,38.99
-7.35,2.32,-5.64,39.13,39.13,39.27
-7.06,2.10,-6.10,40.81,40.81,40.81
-6.99,1.92,-6.36,42.42,42.49,42.49
-6.99,1.91,-6.57,42.21,42.21,41.79
-6.99,1.79,-7.04,39.83,39.69,39.69
-6.90,1.89,-7.35,38.78,38.78,38.22
-6.71,2.10,-7.60,35.07,35.07,35.07
-6.44,2.12,-7.97,31.15,31.15,31.15
-6.13,1.62,-8.23,28.35,28.28,28.28
-6.02,1.47,-8.24,27.23,27.23,26.95
-5.87,1.61,-8.35,23.87,22.82,22.82
-5.53,1.55,-8.93,20.30,20.30,20.16
-5.43,0.97,-9.18,21.98,21.98,22.47
-5.68,0.69,-9.38,25.97,25.97,25.97
-5.77,0.91,-9.45,25.83,25.83,25.83
-5.51,1.23,-9.49,21.91,21.91,21.35
-5.22,1.13,-9.55,18.13,18.13,18.13
-5.31,0.67,-9.35,19.04,19.04,19.04
-4.99,0.92,-9.42,16.38,16.38,16.38
-4.46,1.21,-9.35,12.46,10.85,10.85
-3.87,1.54,-9.04,4.48,4.48,3.43
-3.13,1.56,-9.37,-11.48,-13.09,-13.09
-2.88,1.20,-10.08,-15.82,-16.03,-16.03
-2.86,0.64,-10.84,-13.58,-13.58,-12.04
-3.31,0.22,-11.27,-5.67,-5.67,-5.67
-3.68,0.11,-11.46,4.06,4.06,4.06
-4.17,0.12,-11.22,15.40,15.40,15.40
-4.52,0.24,-10.94,20.51,22.12,22.12
-4.67,0.32,-10.99,29.19,29.19,29.19
-5.05,0.69,-11.34,32.90,32.90,32.90
-4.92,1.09,-11.81,33.11,33.04,33.04
-4.82,1.15,-12.71,31.43,31.43,31.43
-4.54,1.53,-13.27,24.64,24.64,24.64
-4.66,2.06,-13.59,13.09,13.09,13.09
-4.99,2.12,-13.07,-1.33,-3.43,-7.77
-5.28,2.14,-12.26,-19.11,-21.49,-26.04
-5.27,2.07,-11.38,-37.31,-39.55,-43.96
-4.95,1.70,-10.72,-53.41,-55.09,-55.09
-4.64,1.01,-10.19,-64.19,-64.19,-64.68
-4.30,0.59,-10.01,-64.89,-64.89,-64.61
-3.85,0.34,-9.73,-60.97,-60.97,-60.13
-3.40,0.20,-9.37,-54.60,-54.60,-54.60
-3.24,0.16,-8.98,-45.71,-45.71,-45.71
-3.26,0.26,-8.68,-35.14,-35.14,-35.14
-3.41,0.68,-8.59,-21.91,-21.91,-21.91
-3.83,0.95,-8.59,-15.47,-15.47,-14.49
-4.46,1.19,-8.37,-8.54,-8.54,-8.54
-5.35,1.61,-8.24,-7.35,-7.35,-7.35
-5.99,2.04,-8.14,-11.20,-11.20,-11.20
-6.59,2.16,-7.93,-15.40,-16.94,-16.94
-7.25,2.06,-7.52,-20.79,-21.98,-21.98
-7.71,2.18,-7.10,-26.39,-26.39,-27.93
-7.82,2.56,-6.86,-34.02,-34.02,-34.02
-7.46,2.68,-6.91,-45.01,-45.01,-45.01
-7.03,2.48,-6.88,-50.75,-50.75,-50.75
-6.70,2.18,-6.86,-51.80,-51.73,-51.38
-6.51,1.90,-6.59,-49.28,-48.72,-47.53
-6.22,1.82,-6.03,-42.21,-41.44,-41.44
-6.28,1.93,-5.43,-35.14,-35.14,-34.58
-6.49,2.07,-5.03,-31.57,-31.57,-31.01
-7.00,2.23,-4.64,-27.23,-27.23,-27.23
-7.54,2.72,-4.43,-24.71,-24.71,-24.71
-7.98,2.97,-3.73,-30.24,-30.24,-30.24
-8.30,2.97,-3.29,-33.74,-34.86,-34.86
-8.46,3.11,-2.84,-38.08,-38.08,-39.06
-8.54,3.35,-2.49,-41.44,-41.44,-42.07
-8.83,3.52,-1.75,-43.82,-43.89,-43.89
-9.06,3.55,-0.81,-46.20,-46.20,-46.41
-9.13,3.55,-0.20,-49.21,-49.21,-49.70
-9.21,3.49,0.17,-51.87,-52.43,-52.64
-9.51,3.69,0.35,-53.83,-53.83,-54.11
-9.09,3.71,0.53,-55.72,-55.72,-55.93
-8.25,3.35,0.67,-55.65,-55.65,-55.65
-7.96,3.20,1.03,-55.79,-55.79,-55.79
-7.47,3.04,1.28,-56.70,-56.70,-56.70
-6.93,2.61,2.01,-57.68,-57.68,-57.68
-6.33,2.46,2.76,-58.38,-58.38,-58.38
-5.25,2.02,3.52,-58.80,-58.80,-58.80
-3.99,1.36,4.29,-57.05,-55.86,-55.86
-2.05,0.13,5.70,-48.37,-48.37,-46.90
-0.85,-0.17,6.83,-34.58,-34.58,-32.55
-0.45,0.24,8.74,-12.81,-12.81,-12.81
-0.38,0.97,9.92,4.48,4.48,4.48
-2.37,2.69,10.24,25.48,25.48,29.47
-3.65,2.97,10.28,43.61,43.61,43.61
-4.17,3.67,10.66,63.77,63.77,63.77
-5.41,4.27,10.74,71.61,71.61,71.61
-6.28,4.71,10.52,75.11,75.04,75.04
-6.59,4.84,10.13,74.62,74.34,74.34
-6.24,4.96,9.12,72.31,71.12,71.12
-5.49,5.12,8.11,68.25,67.48,66.08
-5.18,5.22,7.05,61.46,60.55,60.55
-5.01,5.12,5.97,51.80,51.80,50.96
-4.99,4.79,5.29,47.18,45.78,45.22
-5.27,4.52,4.33,41.23,41.23,41.23
-6.03,4.55,3.53,36.68,36.19,36.19
-6.46,4.82,3.04,32.90,32.27,32.27
-6.67,4.73,2.41,28.21,28.21,28.00
-7.07,4.43,2.06,27.51,27.72,27.93
-7.61,4.15,1.42,29.89,30.45,30.45
-8.00,4.39,0.78,33.39,33.39,33.39
-8.33,4.84,-0.05,32.83,32.83,32.55
-8.33,4.77,-0.56,30.17,30.17,29.82
-8.23,4.17,-0.93,29.26,29.26,29.26
-8.39,3.98,-1.25,30.17,30.17,30.31
-8.32,4.05,-1.49,30.38,30.45,30.31
-7.97,3.73,-2.05,29.54,29.54,29.33
-8.00,3.39,-2.46,29.68,29.68,29.68
-8.13,3.17,-2.68,31.57,31.57,31.57
-7.89,3.24,-2.89,33.88,33.88,34.16
-7.74,3.33,-3.29,35.91,35.91,35.91
-7.91,3.27,-3.84,37.52,37.94,37.94
-8.09,3.22,-4.43,40.88,41.30,41.30
-8.27,3.50,-4.97,42.35,42.35,42.35
-8.40,3.86,-5.17,40.67,39.90,39.62
-8.39,3.60,-5.25,36.54,36.54,36.19
-8.27,3.44,-5.31,33.88,33.88,33.46
-8.10,3.33,-5.32,31.71,30.94,30.38
-8.26,3.34,-5.31,26.74,26.74,26.74
-8.17,3.23,-5.34,22.47,22.47,22.47
-7.93,2.99,-5.36,18.76,18.76,18.76
-7.62,2.87,-5.37,16.73,16.73,16.45
-7.23,2.84,-5.56,14.84,14.84,14.84
-6.94,2.69,-5.87,15.33,15.33,15.33
-6.82,2.50,-6.12,16.80,17.15,17.15
-6.61,2.56,-6.14,16.66,16.66,16.24
-6.25,2.41,-6.09,14.63,14.35,14.35
-4.91,2.23,-5.99,12.95,12.95,12.81
-5.97,2.10,-5.97,12.18,12.18,12.04
-5.86,1.81,-6.19,12.60,13.09,13.09
-5.65,1.58,-6.50,14.70,15.40,15.40
-5.66,1.39,-6.57,18.13,18.55,18.55
-5.75,1.47,-6.60,22.19,22.19,22.19
-5.50,1.60,-6.89,24.15,24.15,24.15
-5.24,1.50,-7.76,26.39,26.74,26.74
-5.14,1.42,-8.20,28.35,28.84,28.84
-5.07,1.37,-8.79,31.92,31.92,32.27
-5.08,1.19,-8.96,34.93,34.93,35.28
-5.24,1.03,-8.90,36.68,36.68,36.61
-5.10,1.25,-9.34,35.56,35.56,35.56
-5.01,1.17,-9.63,35.00,34.65,34.65
-4.99,1.22,-9.96,33.32,32.62,32.62
-4.98,1.14,-9.83,23.24,23.24,23.24
-4.65,1.11,-9.44,14.21,13.23,13.23
-4.26,0.97,-9.71,6.16,6.16,5.67
-3.74,0.83,-10.09,4.20,4.20,4.13
-3.66,0.66,-10.48,4.97,4.97,4.97
-3.71,0.66,-10.89,5.11,5.11,5.11
-3.60,0.78,-10.98,3.78,3.43,3.43
-3.38,0.94,-11.04,-0.70,-1.19,-1.19
-3.27,1.07,-10.84,-5.18,-5.74,-5.74
-3.23,1.23,-10.67,-8.96,-8.96,-8.96
-3.24,1.07,-10.49,-12.95,-12.95,-12.95
-3.35,0.58,-10.50,-14.42,-14.42,-14.42
-3.58,0.06,-11.05,-6.72,-5.32,-5.32
-3.82,-0.02,-11.98,8.68,8.68,8.68
-4.08,0.02,-12.94,25.34,25.34,25.34
-4.25,0.15,-13.33,35.56,36.96,36.96
-4.57,0.37,-13.74,43.89,43.89,43.89
-4.92,0.99,-13.80,43.05,43.05,43.05
-5.15,1.44,-13.39,36.47,36.47,34.09
-5.35,1.86,-11.53,-0.35,-0.35,-2.80
-5.27,1.52,-11.18,-15.19,-19.88,-22.26
-4.87,1.12,-10.83,-32.90,-36.68,-38.50
-4.23,0.81,-10.53,-48.09,-48.09,-49.49
-3.64,0.59,-10.21,-57.54,-57.54,-58.31
-3.27,0.48,-9.79,-63.42,-63.42,-63.42
-3.13,0.35,-9.61,-64.61,-64.54,-64.54
-3.28,0.26,-9.31,-63.07,-63.07,-62.23
-3.57,0.33,-8.88,-58.45,-57.75,-57.75
-3.91,0.41,-8.35,-51.66,-50.82,-50.82
-4.46,0.58,-7.82,-45.43,-45.43,-42.63
-5.32,0.55,-7.24,-37.45,-37.45,-37.45
-6.10,0.63,-6.69,-29.33,-29.33,-28.42
-6.68,0.90,-6.39,-22.75,-22.75,-22.05
-7.22,1.23,-6.73,-18.34,-18.34,-18.34
-7.52,1.75,-6.92,-19.04,-20.09,-20.09
-7.70,2.44,-6.97,-24.78,-25.55,-25.55
-7.85,2.79,-7.03,-34.23,-34.23,-35.14
-8.21,2.90,-7.09,-41.02,-41.02,-42.00
-8.13,2.92,-6.82,-48.16,-48.16,-48.16
-7.92,2.80,-6.03,-55.86,-55.86,-55.86
-7.88,2.73,-5.47,-61.32,-61.32,-61.32
-7.92,2.62,-5.01,-64.75,-65.52,-65.52
-7.95,2.38,-4.55,-66.71,-66.71,-66.78
-7.89,2.28,-3.93,-65.80,-65.80,-65.80
-7.64,2.25,-3.34,-63.49,-63.49,-63.14
-7.41,2.12,-2.86,-61.67,-60.90,-60.48
-7.08,1.92,-2.10,-57.33,-55.65,-54.60
-6.99,1.77,-1.52,-48.51,-48.51,-44.52
-7.42,2.17,-0.60,-35.70,-35.70,-34.65
-7.64,2.62,0.10,-29.19,-29.19,-29.19
-8.07,3.10,0.69,-28.63,-28.63,-28.63
-8.32,3.19,1.36,-28.98,-28.98,-28.98
-8.38,3.27,1.56,-30.03,-30.03,-30.03
-8.58,3.59,1.71,-33.39,-33.39,-33.39
-8.65,3.40,1.92,-38.92,-38.92,-38.92
-8.26,3.08,1.97,-42.14,-43.40,-43.40
-7.62,3.03,2.23,-47.60,-47.60,-49.21
-6.12,2.85,2.89,-53.76,-53.76,-54.04
0.58,0.77,6.34,-37.87,-37.87,-37.87
1.79,0.49,8.16,-21.35,-21.35,-16.52
2.47,0.65,9.74,-1.40,-1.40,-1.40
1.67,1.37,10.61,24.71,24.71,24.71
-0.02,5.63,10.55,33.11,33.11,33.11
-4.54,4.47,11.06,35.98,35.98,35.98
-6.67,5.79,11.24,34.65,34.65,34.09
-8.59,6.28,11.05,26.81,26.81,26.81
-8.43,6.31,10.74,18.76,18.76,18.76
-5.94,5.46,10.48,14.91,14.91,14.91
-4.56,4.13,9.82,15.26,15.26,15.26
-3.39,3.31,9.38,19.11,19.11,19.11
-2.83,2.93,8.66,24.57,24.57,24.57
-2.71,3.19,7.90,30.10,30.10,30.10
-2.70,2.87,7.16,34.37,35.21,35.21
-3.13,2.48,6.19,41.30,41.30,43.75
-4.20,2.90,5.28,49.00,49.00,49.00
-5.46,3.70,4.53,50.96,50.96,50.96
-6.46,4.23,3.87,48.09,48.09,48.09
-7.20,4.13,3.38,44.87,43.68,43.68
-7.68,4.07,2.69,40.53,40.53,39.76
-8.07,4.02,1.85,37.59,37.59,37.59
-8.23,4.19,1.22,36.68,36.68,36.68
-7.74,3.96,0.45,36.05,36.05,36.05
-7.56,3.80,-0.03,37.38,37.38,37.38
-7.76,3.77,-0.44,39.27,39.27,39.27
-7.80,3.90,-0.91,40.67,40.67,40.67
-7.81,3.92,-1.36,40.81,40.81,40.81
-7.72,3.88,-2.00,41.02,41.09,41.09
-7.51,3.91,-2.49,41.30,41.30,41.30
-7.80,4.00,-3.14,42.14,42.14,42.14
-8.26,4.23,-3.50,42.35,42.42,42.42
-8.47,4.17,-3.84,42.00,42.00,41.79
-8.26,3.92,-4.07,40.67,40.67,40.67
-8.27,3.68,-4.51,39.13,39.13,39.13
-8.63,3.43,-4.73,38.71,38.71,38.71
-8.80,3.07,-4.70,37.66,37.59,37.59
-8.85,3.08,-4.68,36.19,35.21,35.21
-8.04,2.23,-5.19,35.00,35.00,35.14
-7.87,1.98,-5.22,35.07,34.72,34.72
-7.28,1.86,-5.41,33.60,33.39,33.39
-6.78,1.61,-5.80,34.58,34.58,34.58
-6.45,1.43,-6.25,39.69,39.69,39.69
-6.67,1.55,-6.58,45.43,45.43,45.43
-6.96,1.83,-6.68,48.02,48.09,48.09
-7.03,2.12,-6.94,48.79,48.93,48.93
-7.06,2.17,-7.35,49.91,50.05,50.05
-6.91,2.01,-7.51,50.47,50.33,50.33
-6.69,1.93,-7.66,47.18,46.41,46.41
-6.36,2.02,-8.05,39.76,38.64,38.64
-6.12,1.75,-8.26,33.60,33.60,33.60
-6.18,1.20,-8.45,29.75,29.47,29.47
-6.47,0.79,-8.56,28.00,27.16,26.74
-6.64,0.68,-8.61,24.36,23.24,23.24
-6.56,0.84,-8.88,17.78,17.78,16.80
-6.23,1.06,-9.02,10.99,10.99,10.01
-5.92,1.14,-8.81,0.63,0.63,0.63
-5.76,1.21,-8.26,-7.42,-7.42,-7.42
-5.48,1.07,-7.75,-14.28,-14.28,-14.28
-4.85,0.73,-7.67,-17.57,-17.57,-17.57
-4.13,0.32,-8.04,-16.94,-16.94,-16.94
-3.77,0.12,-8.72,-10.71,-10.71,-10.71
-3.60,0.04,-9.19,-4.13,-4.13,-4.13
-3.63,0.05,-9.46,1.75,1.75,1.75
-3.72,0.11,-10.54,9.94,11.13,11.13
-4.07,-0.08,-11.61,17.85,19.39,22.54
-5.08,-0.33,-12.84,31.15,32.83,32.83
-6.39,0.13,-14.10,46.06,46.97,46.97
-7.46,0.72,-14.46,50.05,50.40,50.40
-8.61,1.14,-14.09,46.13,45.01,45.01
-9.12,1.21,-13.08,35.28,33.53,33.53
-9.13,1.27,-12.55,24.36,20.30,18.41
-8.49,1.31,-12.15,4.06,4.06,4.06
-7.37,1.23,-12.07,-14.56,-16.38,-16.38
-6.13,1.00,-12.10,-24.92,-26.53,-29.12
-5.08,0.55,-12.05,-34.37,-35.21,-35.21
-4.28,0.10,-11.74,-39.76,-40.11,-40.11
-3.78,-0.06,-11.51,-41.23,-41.51,-41.51
-3.67,0.14,-11.14,-44.87,-44.87,-45.50
-3.78,0.39,-10.49,-49.77,-51.66,-51.66
-4.47,0.48,-9.41,-57.75,-57.75,-58.73
-5.06,0.89,-8.16,-69.37,-69.37,-70.63
-5.67,1.31,-7.66,-78.89,-78.89,-78.89
-5.96,1.66,-7.39,-88.83,-90.23,-90.23
-6.13,1.55,-7.26,-100.73,-101.43,-101.43
-6.19,1.28,-6.95,-103.25,-103.25,-103.25
-6.28,0.92,-6.59,-99.54,-95.83,-95.83
-6.07,0.25,-6.09,-81.97,-81.97,-81.97
-6.01,-0.18,-5.30,-55.30,-52.08,-52.08
-6.48,-0.26,-4.72,-31.71,-28.42,-28.42
-6.93,-0.08,-4.25,0.63,0.63,3.64
-7.37,0.41,-4.05,19.18,19.18,21.28
-7.87,1.62,-3.93,33.18,33.18,33.18
-8.41,2.58,-3.68,32.34,32.34,32.34
-8.71,3.28,-3.04,20.72,20.72,20.72
-8.91,3.82,-2.57,-2.24,-2.24,-2.24
-9.09,4.55,-2.28,-21.77,-21.77,-21.77
-9.18,4.85,-1.93,-43.89,-43.89,-43.89
-8.97,4.72,-1.55,-62.16,-62.16,-62.16
-8.85,4.33,-0.98,-74.48,-75.18,-75.18
-8.88,4.25,-0.37,-77.77,-77.70,-77.70
-8.77,4.29,-0.08,-77.00,-76.30,-76.30
-8.89,4.56,0.15,-76.30,-76.30,-76.30
-9.10,4.76,0.38,-79.66,-79.66,-81.06
-8.96,4.88,0.42,-88.76,-90.30,-90.30
-8.88,4.93,0.46,-104.02,-104.02,-105.49
-8.59,4.63,0.37,-111.30,-113.47,-114.45
-7.37,3.94,0.67,-118.30,-118.30,-119.84
-5.31,2.89,1.33,-121.31,-121.31,-121.31
-3.44,1.65,2.06,-112.91,-112.91,-112.91
-2.08,0.71,2.96,-98.42,-98.42,-98.42
-0.68,0.38,4.52,-79.66,-79.66,-77.70
0.03,0.20,5.91,-66.22,-64.40,-64.40
0.99,-0.16,8.20,-49.07,-47.11,-47.11
1.65,-0.23,9.60,-33.18,-33.18,-30.38
0.74,-0.19,10.59,-11.55,-8.12,-8.12
-0.79,0.87,11.79,21.91,21.91,24.71
-2.74,2.50,12.15,38.64,38.64,39.76
-4.68,3.45,12.04,43.12,43.12,43.12
-5.41,3.96,11.87,41.23,41.23,41.23
-5.27,3.92,11.75,38.36,38.36,38.36
-4.52,3.91,11.37,36.40,35.84,35.84
-3.32,3.77,10.61,34.65,34.37,34.37
-2.46,3.51,9.78,34.93,34.93,34.93
-2.16,3.24,9.00,37.80,37.80,37.80
-2.45,3.11,8.37,40.67,41.58,41.58
-3.10,3.36,7.56,43.89,43.89,44.10
-3.99,3.69,7.04,42.91,42.91,42.91
-4.77,3.76,6.75,41.02,41.02,41.02
-5.00,3.51,6.15,40.11,40.11,40.11
-5.31,3.48,5.68,39.69,39.69,39.69
-5.93,3.46,5.02,38.78,38.71,38.71
-6.44,3.55,4.64,38.15,38.08,38.08
-6.66,3.23,4.11,39.97,39.97,40.46
-6.97,3.21,3.72,46.69,46.69,46.69
-7.20,3.41,3.39,51.94,51.94,51.94
-7.30,3.66,3.03,54.18,54.60,54.60
-7.35,3.69,2.62,55.51,55.51,55.44
-7.08,3.49,1.91,57.33,57.33,57.33
-7.16,3.44,1.49,59.85,60.62,60.62
-7.58,3.64,0.98,63.49,63.49,64.40
-7.75,3.87,0.48,66.50,66.50,66.50
-8.02,3.98,-0.22,68.04,68.04,68.04
-8.49,4.12,-0.94,67.62,67.62,67.62
-8.77,4.26,-1.41,65.87,64.96,64.96
-8.53,4.60,-2.40,52.85,52.85,52.85
-8.40,4.27,-2.83,44.87,44.87,44.87
-8.18,3.97,-3.29,36.61,36.61,36.61
-7.94,3.80,-3.55,31.99,31.99,31.36
-8.01,3.38,-3.65,28.42,28.42,28.42
-7.99,3.07,-3.84,28.77,28.77,28.77
-8.05,2.77,-4.06,31.29,32.55,32.55
-8.17,2.58,-4.27,36.75,36.75,38.57
-8.25,2.45,-4.48,44.38,44.38,46.34
-8.12,2.39,-4.72,53.69,53.69,53.69
-8.07,2.12,-5.06,65.17,65.17,65.17
-7.92,2.15,-5.46,71.68,73.43,73.43
-7.48,2.44,-6.03,78.12,78.12,78.12
-7.25,2.42,-6.67,82.74,83.09,83.09
-7.21,2.31,-7.02,83.51,83.51,83.16
-7.01,2.29,-7.11,76.93,75.53,75.53
-6.76,2.75,-7.22,57.61,57.61,55.23
-6.15,3.04,-7.47,41.44,41.44,39.27
-5.57,2.88,-7.85,25.69,25.69,24.08
-5.48,2.54,-8.17,11.76,11.76,11.76
-5.60,2.05,-8.18,5.32,3.50,3.50
-5.49,1.64,-8.03,-0.63,-1.33,-1.33
-5.33,1.16,-7.96,-2.03,-1.61,-1.61
-5.29,0.72,-8.06,0.98,0.98,2.24
-5.45,0.56,-8.36,6.72,6.72,8.33
-5.68,0.43,-8.84,14.42,14.42,14.42
-5.97,0.34,-9.58,30.38,30.38,30.38
-5.52,0.41,-9.83,33.60,33.95,33.95
-5.16,0.52,-10.26,37.17,37.17,37.31
-4.90,0.63,-10.17,37.31,37.31,37.10
-4.86,0.77,-9.94,34.86,33.46,32.62
-4.51,0.92,-9.39,26.95,25.83,25.83
-4.16,0.95,-9.08,16.03,16.03,14.91
-2.90,0.39,-8.74,-0.77,-1.33,-1.33
-2.51,0.39,-9.33,-2.31,-2.45,-2.45
-2.37,0.10,-10.39,-0.14,-0.14,0.98
-2.59,-0.11,-11.04,7.28,7.28,7.28
-2.82,-0.28,-11.36,14.28,15.12,15.12
-3.24,-0.28,-11.25,18.90,18.90,18.90
-3.45,0.21,-11.23,18.97,18.97,18.76
-4.16,0.41,-11.19,16.17,16.17,15.54
-4.91,0.34,-11.68,9.24,9.24,9.24
-4.62,0.48,-11.99,3.43,3.43,1.47
-4.56,0.44,-12.05,-3.57,-3.57,-5.04
-4.24,0.31,-12.16,-9.31,-9.31,-9.31
-4.05,0.05,-13.04,-10.22,-9.94,-9.94
-4.08,-0.10,-13.50,-8.12,-6.65,-6.65
-4.32,0.04,-13.34,-4.62,-3.92,-3.92
-4.74,0.24,-12.89,-3.64,-3.64,-3.64
-5.22,0.36,-12.34,-6.02,-6.02,-6.02
-5.37,0.70,-11.90,-11.13,-11.13,-11.13
-5.09,1.13,-11.34,-25.83,-25.83,-25.83
-4.62,1.17,-11.11,-39.48,-39.48,-39.48
-4.28,0.92,-11.17,-49.42,-49.42,-49.42
-3.94,0.97,-10.71,-71.12,-71.12,-71.12
-3.95,0.89,-10.27,-77.70,-77.70,-77.70
-4.13,0.74,-9.90,-80.71,-81.41,-81.41
-4.47,0.89,-9.39,-83.23,-83.23,-83.79
-4.69,1.31,-8.93,-86.52,-86.52,-86.52
-5.05,1.36,-8.69,-87.78,-87.78,-87.85
-5.66,1.43,-7.95,-87.99,-87.99,-87.99
-6.23,1.55,-7.46,-86.66,-86.66,-86.66
-6.72,1.68,-6.61,-83.51,-83.51,-83.51
-7.00,1.92,-6.19,-81.97,-81.90,-81.90
-7.14,2.05,-5.79,-81.13,-80.92,-80.71
-7.11,2.08,-5.35,-80.08,-80.08,-79.24
-7.02,1.83,-5.02,-77.07,-77.07,-76.58
-6.85,1.82,-4.51,-72.38,-71.19,-70.56
-6.91,2.21,-3.99,-67.97,-66.99,-66.43
-6.96,2.61,-3.44,-63.63,-63.63,-63.63
-6.94,2.55,-2.59,-59.78,-59.78,-59.78
-6.88,2.59,-1.88,-54.25,-54.25,-54.25
-7.08,3.02,-1.25,-51.10,-51.10,-51.10
-7.52,3.51,-0.65,-48.65,-48.65,-48.65
-7.49,3.70,0.07,-44.45,-43.89,-43.89
-7.11,4.02,0.42,-42.35,-42.14,-42.14
-7.19,4.83,1.07,-45.36,-46.20,-46.20
-8.17,5.02,1.64,-52.22,-53.13,-53.13
-8.62,4.93,1.93,-59.85,-59.85,-61.04
-8.28,4.77,2.72,-73.43,-73.43,-74.76
-7.58,4.56,2.88,-80.92,-82.88,-83.79
-5.66,3.26,3.35,-87.43,-87.85,-87.85
-3.32,1.90,4.49,-84.00,-84.00,-82.53
-0.02,0.49,4.78,-71.75,-66.15,-63.28
-0.52,0.05,5.26,-41.44,-41.44,-41.44
-0.63,0.64,7.39,-20.23,-18.55,-18.55
-1.33,0.89,8.60,-11.27,-7.42,-7.42
-2.37,1.17,9.55,-1.61,0.84,0.84
-3.21,2.47,9.91,2.03,2.24,2.45
-3.78,3.69,9.77,2.17,1.82,1.82
-4.74,2.60,10.08,7.00,7.00,8.26
-4.54,3.12,10.25,14.42,14.42,14.42
-5.47,4.14,10.73,16.10,16.10,16.24
-5.27,4.14,11.07,15.89,15.89,15.89
-4.61,3.55,11.11,15.26,15.47,15.47
-3.82,2.93,10.75,18.06,18.06,19.53
-3.15,2.98,9.85,25.69,25.69,25.69
-2.90,3.01,9.17,32.90,32.90,32.90
-4.21,2.90,8.08,49.35,49.35,49.35
-5.22,3.56,7.78,52.15,52.01,52.01
-5.54,3.93,6.84,49.63,49.63,49.00
-5.66,3.81,6.20,45.99,45.99,45.50
-6.02,3.89,5.43,41.09,41.09,41.09
-6.56,3.81,5.10,39.13,38.57,38.57
-6.70,3.62,4.58,37.17,37.17,36.75
-6.48,3.50,3.75,35.35,35.35,35.35
-6.57,3.32,3.13,37.59,37.59,37.59
-6.84,3.29,2.54,43.61,43.61,44.31
-7.11,3.37,2.14,49.70,49.70,50.19
-7.47,3.57,2.00,51.94,52.29,52.22
-7.77,3.78,1.75,53.20,53.20,53.48
-7.78,3.69,1.16,57.54,57.54,57.54
-7.34,3.60,0.68,60.97,60.97,61.32
-7.16,3.55,0.15,63.35,63.35,63.35
-7.35,3.69,-0.23,63.70,63.70,63.70
-7.57,3.73,-0.75,63.14,63.14,63.07
-7.90,3.90,-1.25,62.65,62.37,62.30
-8.64,4.39,-2.22,60.97,60.62,60.62
-9.02,4.94,-2.83,54.39,54.39,53.41
-9.20,5.01,-2.93,46.48,46.48,46.48
-9.54,5.08,-3.24,36.61,36.61,36.61
-9.53,4.86,-3.47,30.59,28.63,28.63
-9.76,4.26,-3.63,23.45,23.45,22.75
-9.86,4.29,-3.68,15.96,15.96,15.96
-9.49,4.43,-3.87,10.99,9.52,9.52
-9.04,4.28,-3.99,6.30,5.88,5.88
-8.90,3.69,-4.24,7.91,8.40,8.40
-8.59,3.34,-4.29,13.72,13.72,14.56
-8.13,3.15,-4.17,19.95,19.95,19.95
-7.64,3.13,-4.12,21.42,21.70,21.70
-7.47,2.92,-4.24,23.03,23.03,23.03
-7.42,2.67,-4.30,24.99,25.62,25.62
-7.22,2.59,-4.38,27.86,28.49,28.49
-6.93,2.74,-4.59,29.82,29.82,29.82
-6.85,2.74,-4.80,29.54,29.54,29.54
-6.55,2.53,-4.90,30.24,30.94,30.94
-6.60,2.28,-5.04,33.25,34.16,34.16
-6.68,3.64,-5.35,36.68,36.68,36.89
-6.58,2.62,-5.58,36.75,36.54,36.54
-6.49,2.50,-5.80,35.42,35.42,35.42
-6.50,2.54,-6.02,35.07,34.86,34.72
-6.29,2.63,-6.47,33.18,32.90,32.90
-6.14,2.48,-6.92,29.82,29.82,29.82
-6.22,2.12,-7.32,29.68,29.96,30.10
-6.61,1.80,-7.92,30.94,31.15,31.22
-6.97,1.86,-8.34,30.10,30.10,30.10
-6.92,2.03,-8.44,25.27,24.64,24.64
-6.70,1.90,-8.49,21.70,21.70,21.70
-6.50,1.73,-8.79,23.87,23.87,24.43
-6.33,1.70,-8.88,24.78,24.78,24.78
-6.01,1.67,-8.79,22.33,21.91,21.91
-5.52,1.39,-8.73,19.04,18.55,18.55
-5.04,1.35,-8.93,15.05,14.63,14.63
-4.74,1.38,-9.69,12.39,12.39,12.32
-4.72,1.35,-9.84,12.18,12.18,12.18
-4.92,1.11,-9.89,12.18,12.18,12.11
-5.21,0.85,-9.69,11.83,11.83,11.76
-4.93,0.90,-9.41,11.62,11.62,11.62
-4.61,0.96,-9.06,12.39,12.39,12.60
-4.81,0.79,-8.89,13.23,13.23,13.30
-4.35,0.87,-9.09,13.65,13.65,13.65
-3.93,0.70,-9.41,14.07,14.07,14.28
-3.46,0.55,-9.88,14.91,14.91,14.91
-3.33,0.74,-10.21,14.14,14.14,14.14
-3.45,0.84,-10.59,11.76,11.76,11.27
-4.65,0.81,-10.83,9.52,9.38,9.38
-5.16,0.89,-10.91,9.10,8.96,8.96
-5.43,1.03,-10.89,8.75,8.54,8.54
-5.61,1.04,-10.92,7.35,7.00,7.00
-5.40,1.07,-10.90,-4.34,-4.34,-6.37
-5.22,1.04,-10.59,-9.94,-9.94,-10.57
-5.00,0.85,-10.27,-15.54,-15.54,-15.89
-4.76,0.80,-10.27,-17.99,-17.99,-17.99
-4.68,0.86,-10.31,-19.74,-20.65,-20.65
-4.58,0.90,-10.41,-22.26,-23.17,-23.17
-4.72,0.95,-10.50,-24.78,-24.99,-24.99
-5.10,1.17,-10.13,-28.42,-28.42,-28.98
-5.60,1.32,-9.68,-31.57,-32.55,-33.11
-6.21,1.20,-9.24,-35.14,-35.14,-35.14
-6.60,1.18,-9.17,-37.80,-37.80,-37.80
-6.76,1.29,-9.15,-39.62,-40.39,-40.39
-6.93,1.49,-8.93,-43.40,-43.40,-43.40
-6.90,1.55,-8.64,-47.67,-47.88,-47.88
-6.74,1.43,-8.36,-49.14,-49.00,-49.00
-6.73,1.29,-8.14,-48.09,-47.88,-47.88
-6.90,1.43,-7.91,-44.94,-44.94,-44.73
-6.95,1.83,-7.73,-44.03,-43.96,-44.10
-6.90,2.19,-6.69,-48.16,-48.65,-48.65
-7.39,2.41,-5.92,-56.21,-56.56,-56.56
-7.60,2.41,-5.47,-58.80,-59.15,-59.43
-7.68,2.39,-4.98,-59.92,-59.92,-59.85
-7.73,2.53,-4.82,-58.73,-58.73,-57.82
-7.87,2.56,-4.43,-53.83,-53.83,-53.20
-8.07,2.48,-3.90,-46.90,-46.90,-45.99
-8.48,2.62,-3.26,-37.80,-37.80,-37.80
-8.82,2.89,-2.87,-34.72,-34.09,-34.09
-9.04,3.00,-2.34,-33.39,-33.39,-33.25
-9.12,2.87,-1.86,-33.04,-33.04,-33.04
-8.72,2.96,-1.65,-33.88,-34.37,-34.37
-7.39,3.37,-1.35,-47.25,-47.25,-48.58
-6.46,3.45,-0.96,-57.33,-57.33,-57.33
-5.57,3.39,-0.34,-70.56,-71.96,-71.96
-5.00,3.54,0.23,-80.85,-82.04,-82.04
-5.25,3.61,0.94,-86.87,-89.18,-89.18
-5.78,3.56,1.90,-91.98,-92.33,-92.96
-6.36,3.74,2.59,-93.17,-92.96,-92.96
-6.27,3.49,4.06,-83.23,-82.39,-82.39
-5.94,3.16,4.51,-76.30,-76.30,-75.60
-5.90,3.42,4.89,-72.52,-71.75,-71.26
-6.29,3.53,5.79,-69.23,-69.23,-69.23
-4.95,2.89,6.63,-67.41,-67.41,-67.41
-3.88,2.32,7.22,-61.95,-61.95,-61.95
-3.43,2.13,7.65,-49.49,-49.49,-49.49
-3.16,2.35,8.10,-42.91,-40.81,-40.81
-2.29,2.00,8.87,-35.56,-33.53,-33.53
-1.82,1.54,9.42,-26.46,-26.46,-26.46
-2.34,1.68,9.81,-19.74,-18.83,-18.83
-2.92,2.26,10.39,-10.50,-9.73,-9.73
-3.47,2.57,10.52,-5.39,-5.39,-4.76
-3.50,2.67,10.41,-1.40,-0.63,-0.63
-3.95,2.65,10.23,1.26,2.03,2.03
-4.26,2.55,10.16,4.69,4.69,5.67
-4.18,2.56,10.08,9.52,9.52,9.94
-3.79,2.55,9.91,13.44,13.44,13.44
-3.52,2.34,9.63,17.22,17.22,17.71
-3.50,2.38,9.38,21.84,22.54,22.54
-3.39,2.62,9.17,29.40,29.40,30.10
-3.58,2.62,8.90,34.79,34.79,34.79
-3.67,2.68,8.53,41.30,41.30,41.30
-3.61,2.85,8.23,47.18,47.88,47.88
-3.93,2.86,8.29,51.73,51.73,51.73
-4.39,3.02,8.00,57.40,57.96,57.96
-4.66,3.39,7.54,59.92,60.13,60.13
-5.02,3.70,6.83,59.85,59.85,59.57
-5.53,3.88,6.47,57.19,57.19,56.84
-5.99,4.10,6.06,54.11,54.11,53.62
-6.15,4.20,5.51,49.84,49.84,49.84
-6.32,4.13,5.15,47.74,47.25,47.25
-6.39,3.98,4.69,45.85,45.85,45.57
-6.68,4.06,4.28,44.52,44.52,44.52
-6.95,4.22,3.95,43.75,43.54,43.54
-7.10,4.07,3.07,41.93,41.93,41.93
-7.35,3.85,2.65,42.49,42.70,42.70
-7.82,3.78,2.34,43.96,44.17,44.17
-8.13,3.88,1.92,46.20,46.48,46.48
-8.30,3.78,1.55,48.51,50.33,50.33
-8.66,3.21,1.17,54.46,57.89,57.89
-8.98,2.97,0.75,64.05,67.83,67.83
-8.95,3.30,0.19,75.32,75.32,75.32
-8.96,3.71,-0.33,80.85,80.85,81.41
-9.26,3.97,-0.90,83.37,83.37,83.51
-9.38,4.10,-1.40,81.20,81.20,81.20
-9.12,4.35,-1.83,74.48,74.48,74.48
-8.59,4.56,-2.22,66.99,64.33,64.33
-8.27,4.48,-2.60,56.00,53.20,53.20
-8.20,4.53,-2.96,44.38,44.38,41.23
-8.09,4.52,-3.32,27.93,27.93,27.93
-7.85,4.26,-3.49,12.88,11.41,11.41
-7.72,3.84,-3.56,4.41,1.12,1.12
-7.46,3.36,-3.67,-4.90,-4.90,-4.90
-7.37,3.07,-3.72,-7.91,-8.05,-8.05
-7.51,2.94,-3.62,-7.28,-6.51,-6.51
-7.28,2.87,-3.57,-4.55,-4.06,-2.80
-7.22,2.49,-3.57,3.22,3.22,3.22
-7.37,2.20,-3.66,12.88,12.88,14.35
-7.53,2.35,-3.71,25.76,25.76,25.76
-7.43,2.41,-3.74,33.95,33.95,33.95
-7.33,2.20,-3.95,43.33,45.99,45.99
-7.09,1.92,-4.32,54.11,54.11,56.77
-7.04,1.95,-4.69,63.84,63.84,65.87
-6.86,2.18,-5.17,69.93,69.93,69.93
-6.26,2.36,-6.58,68.88,68.88,68.11
-5.52,2.68,-7.70,49.21,48.30,48.30
-5.28,2.26,-8.05,40.25,40.25,39.69
-5.07,1.92,-8.91,31.08,31.08,30.31
-5.02,1.79,-9.69,25.34,25.34,25.34
-5.07,1.47,-10.20,24.43,24.78,24.78
-5.33,1.12,-11.26,28.07,28.07,28.07
-5.46,1.33,-11.72,29.33,29.33,29.33
-5.73,1.53,-11.71,27.72,27.72,27.30
-5.65,1.55,-11.18,21.42,21.42,21.42
-5.42,1.57,-10.89,14.84,14.84,14.84
-4.91,1.71,-10.85,3.36,3.36,3.36
-4.23,1.67,-10.79,-5.60,-6.72,-6.72
-3.78,1.19,-10.48,-14.42,-14.42,-14.98
-3.61,0.69,-10.01,-16.94,-17.36,-17.22
-3.48,0.42,-9.39,-16.17,-16.17,-16.17
-3.37,0.28,-8.78,-11.27,-10.43,-10.43
-3.12,0.23,-8.48,-5.74,-4.83,-4.83
-2.95,0.27,-8.70,0.84,2.45,3.01
-2.52,0.24,-9.14,6.58,6.58,8.61
-1.86,0.28,-9.55,12.74,12.74,12.74
-3.06,1.03,-12.49,27.58,28.07,28.07
-3.84,1.39,-12.44,27.93,27.93,27.16
-4.20,1.57,-11.90,23.24,23.24,23.24
-4.08,1.73,-11.04,14.49,14.49,13.23
-3.73,1.64,-10.00,1.05,1.05,1.05
-3.46,1.40,-9.32,-7.98,-7.98,-7.98
-2.92,1.10,-8.74,-17.92,-17.92,-17.92
-2.36,0.84,-8.44,-21.49,-21.49,-21.84
-1.81,0.71,-8.21,-23.87,-23.87,-23.87
-1.42,0.51,-8.08,-22.61,-22.61,-22.61
-1.08,0.42,-8.13,-19.67,-19.67,-19.67
-1.12,0.33,-8.41,-12.95,-12.95,-12.95
-1.31,0.32,-8.59,-7.98,-6.09,-6.09
-1.56,0.43,-8.86,-0.63,1.33,1.33
-2.12,0.58,-9.24,7.35,7.35,8.33
-2.74,0.78,-9.53,12.74,12.74,13.37
-3.15,0.99,-9.71,16.66,16.66,16.87
-3.57,1.18,-9.82,17.71,17.71,17.50
-3.81,1.36,-9.82,15.47,15.47,15.47
-3.88,1.50,-9.90,9.45,9.45,9.45
-3.80,1.57,-9.99,3.15,3.15,3.15
-3.67,1.57,-10.07,-0.98,-0.98,-2.17
-3.38,1.45,-10.11,-5.25,-5.25,-5.25
-3.11,1.31,-9.96,-9.45,-9.45,-9.45
-2.86,1.19,-9.84,-11.20,-11.20,-11.62
-2.88,1.08,-9.58,-12.88,-12.95,-12.95
-2.56,0.83,-9.10,-11.13,-11.13,-10.78
-2.40,0.70,-9.07,-6.44,-6.44,-6.44
-2.47,0.66,-9.09,-0.77,-0.77,-0.77
-2.63,0.61,-9.10,2.94,4.13,4.13
-2.81,0.69,-9.11,7.28,7.98,7.98
-2.90,0.81,-9.13,10.08,10.50,10.50
-3.01,0.95,-9.17,11.55,11.55,11.62
-3.11,1.08,-9.20,11.55,11.55,11.13
-3.19,1.21,-9.21,9.59,9.59,8.89
-3.06,1.20,-9.28,2.66,2.31,2.31
-2.95,1.13,-9.31,-0.49,-0.49,-0.56
-2.94,1.02,-9.29,-1.47,-1.61,-1.82
-2.93,0.93,-9.32,-2.24,-2.24,-2.31
-3.00,0.90,-9.28,-2.31,-2.31,-2.38
-3.10,0.87,-9.25,-1.61,-1.61,-1.40
-3.10,0.78,-9.24,-0.49,-0.49,17.78
-3.09,0.77,-9.27,1.26,1.26,1.26
-3.10,0.86,-9.30,2.38,2.38,2.38
-3.11,0.89,-9.39,2.66,2.66,2.66
-3.17,1.02,-9.34,2.38,2.38,2.38
-3.22,1.03,-9.34,1.68,1.68,1.68
-3.29,1.05,-9.30,1.19,0.98,0.98
-3.32,1.06,-9.26,-0.07,-0.14,-0.14
-3.18,1.07,-9.16,-2.03,-2.03,-2.24
-3.03,0.99,-9.18,-3.36,-3.50,-3.50
-2.98,0.89,-9.20,-3.78,-3.78,-3.78
-3.04,0.80,-9.22,-2.87,-2.59,-2.59
-3.02,0.80,-9.21,-1.26,-1.05,-1.05
-3.08,0.88,-9.19,0.00,0.21,0.21
-3.12,0.93,-9.23,0.98,0.98,1.05
-3.13,0.94,-9.23,1.19,1.26,1.33
-3.21,0.97,-9.24,1.26,1.26,1.26
-3.34,1.00,-9.27,0.84,0.84,0.63
-3.38,1.00,-9.28,0.07,-0.07,-0.07
-3.38,0.99,-9.28,-0.63,-0.77,-0.77
-3.35,1.08,-9.28,-1.19,-1.26,-1.26
-3.36,1.17,-9.24,-2.31,-2.31,-2.52
-3.36,1.18,-9.23,-2.94,-2.94,-2.94
-3.35,0.97,-9.27,-3.29,-3.29,-3.08
-3.34,0.86,-9.18,-3.50,-3.50,-3.50
-3.28,0.85,-9.12,-3.78,-3.85,-3.85
-3.20,0.99,-9.05,-3.99,-3.99,-3.99
-3.14,0.96,-9.06,-3.50,-3.50,-3.22
-3.14,0.88,-9.07,-2.10,-2.10,-2.10
-3.18,1.02,-9.11,-0.77,-0.56,-0.56
-3.42,1.23,-9.17,0.49,0.63,0.63
-3.58,1.27,-9.16,0.77,0.84,0.84