aX,aY,aZ,gX,gY,gZ
-7.47,-0.40,5.09,10.92,10.92,11.48
-7.19,-0.28,4.68,15.89,15.89,15.89
-7.40,-0.29,4.44,19.67,19.67,19.67
-7.81,-0.22,4.07,25.55,26.25,26.25
-8.03,0.13,3.80,29.19,29.68,29.68
-8.20,0.43,3.28,31.99,32.34,32.34
-8.50,0.60,2.90,33.11,33.11,33.60
-9.13,0.68,2.40,34.23,34.23,34.37
-9.42,0.82,1.80,33.53,33.53,33.53
-9.68,1.07,1.40,31.99,31.99,31.99
-9.64,1.15,0.98,28.07,28.07,28.07
-9.75,1.15,0.72,25.69,25.69,25.69
-9.75,1.26,0.44,22.61,22.61,22.61
-9.38,1.27,0.04,19.60,19.60,19.60
-8.93,1.18,-0.31,18.06,17.78,17.78
-8.60,0.90,-0.78,15.68,15.68,15.47
-8.23,0.58,-1.65,15.33,15.33,15.82
-8.16,0.42,-2.12,16.73,16.73,17.01
-8.31,0.29,-2.82,20.58,20.58,20.58
-8.52,0.40,-3.46,22.61,22.89,22.89
-8.81,0.27,-5.33,23.03,23.03,23.03
-9.04,0.26,-5.80,22.54,22.54,22.54
-9.24,0.17,-6.11,21.70,21.70,21.70
-9.09,0.19,-6.40,19.74,19.60,19.60
-8.70,0.18,-6.61,18.13,17.85,17.85
-8.07,0.10,-6.88,16.66,16.59,16.59
-7.34,0.12,-7.03,16.10,16.03,16.03
-6.59,0.10,-7.24,15.54,15.54,15.54
-5.95,-0.01,-7.73,14.91,14.91,14.91
-5.48,-0.12,-7.92,13.58,13.58,13.58
-5.26,-0.18,-8.02,11.55,11.34,11.34
-5.21,-0.01,-8.30,10.99,10.99,10.99
-5.34,0.08,-8.55,10.78,10.78,10.64
-5.62,0.15,-8.77,7.21,7.21,7.21
-5.69,0.21,-9.11,3.99,3.99,3.99
-5.56,0.15,-9.53,3.08,3.08,3.08
-5.55,0.12,-9.91,2.73,2.73,2.59
-5.42,0.22,-10.31,0.49,0.49,0.49
-5.14,0.21,-10.27,-1.26,-1.26,-1.26
-4.82,0.33,-10.45,-3.15,-3.15,-3.15
-4.62,0.33,-10.75,-4.48,-4.48,-4.48
-4.48,0.30,-10.90,-3.85,-3.85,-3.85
-4.42,0.36,-11.08,-1.96,-1.96,-1.96
-4.60,0.34,-11.11,0.07,0.07,0.07
-4.69,0.37,-11.12,1.75,1.75,1.75
-4.71,0.35,-11.04,3.64,3.64,3.64
-4.75,0.37,-10.95,4.48,4.69,4.69
-4.83,0.58,-10.68,5.32,5.46,5.46
-4.80,0.70,-10.27,5.81,5.88,5.88
-4.55,0.72,-10.00,6.09,6.09,6.09
-4.29,0.72,-9.65,5.74,5.53,5.53
-4.16,0.67,-9.23,3.22,3.01,3.01
-4.34,0.38,-8.67,-1.54,-1.54,-1.54
-4.05,0.56,-8.49,-0.14,-0.14,-0.14
-3.48,0.60,-8.37,3.78,4.34,4.34
-3.04,0.48,-8.34,7.42,7.42,7.42
-3.02,0.47,-8.27,7.70,7.49,7.49
-3.30,0.24,-8.18,2.45,2.45,1.75
-3.69,0.16,-8.21,-1.68,-2.87,-2.87
-4.03,0.35,-8.26,-5.74,-5.74,-6.37
-4.12,0.54,-8.35,-6.58,-6.58,-6.58
-4.11,0.45,-8.51,-3.78,-3.78,-3.78
-4.20,0.39,-8.77,0.63,0.63,0.63
-4.36,0.33,-8.86,2.73,2.73,2.73
-4.35,0.23,-8.92,3.43,3.64,3.64
-4.35,0.30,-9.11,3.57,3.50,3.50
-4.52,0.39,-9.27,2.31,2.31,2.10
-4.62,0.53,-9.34,1.19,1.19,1.19
-4.69,0.52,-9.19,-0.91,-0.91,-0.91
-4.57,0.48,-9.07,-0.70,-0.70,-0.70
-4.39,0.28,-8.93,-0.42,-0.42,-0.42
-4.14,0.13,-8.87,-0.21,-0.14,-0.14
-3.91,0.03,-8.59,-2.10,-2.10,-2.10
-4.21,0.23,-9.27,-14.14,-14.14,-14.07
-4.22,-0.18,-9.35,-12.60,-12.46,-12.46
-4.22,-0.30,-9.20,-8.89,-8.89,-8.89
-4.09,-0.38,-9.09,1.68,3.50,3.50
-4.37,0.60,-8.69,0.98,0.98,0.98
-3.94,0.66,-8.70,-1.33,-1.40,-1.40
-3.58,0.38,-8.79,-1.68,-1.68,-1.68
-3.66,0.54,-8.87,-3.15,-3.15,-3.15
-4.05,0.48,-8.86,-3.99,-3.99,-3.99
-4.85,0.76,-9.04,-7.07,-7.07,-7.07
-5.69,0.95,-9.22,-12.04,-12.04,-12.04
-5.70,0.78,-9.44,-17.01,-17.01,-17.01
-5.22,1.21,-10.24,-24.71,-24.71,-24.71
-6.29,1.23,-11.20,-30.59,-30.59,-30.59
-8.03,0.84,-12.64,-34.79,-34.79,-34.79
-9.22,1.30,-13.42,-37.73,-37.87,-37.87
-9.32,1.56,-13.05,-38.15,-37.31,-37.31
-8.94,1.25,-12.20,-32.76,-31.36,-28.63
-8.49,1.01,-10.89,-17.36,-15.68,-15.68
-8.37,0.79,-9.70,-4.41,-4.41,-2.66
-7.19,0.85,-9.04,7.35,8.96,8.96
-6.00,1.22,-9.12,16.45,16.45,16.94
-4.92,1.86,-9.85,13.02,13.02,11.69
-5.21,2.55,-10.11,3.57,0.07,0.07
-6.81,2.39,-9.88,-10.43,-10.43,-13.86
-7.44,2.56,-9.12,-27.65,-29.82,-29.82
-6.62,2.06,-8.27,-43.47,-43.47,-43.47
-4.75,1.30,-7.26,-48.23,-48.23,-47.88
-3.74,0.24,-5.56,-45.50,-44.59,-42.63
-3.65,-0.49,-3.61,-36.05,-34.65,-34.65
-3.69,-0.72,-2.07,-20.65,-19.32,-19.32
-4.02,-0.94,-1.55,-12.39,-8.26,-8.26
-3.83,-0.75,-1.35,-1.33,-1.33,-1.33
-3.08,-0.31,-1.62,-2.45,-2.45,-2.45
-1.49,0.63,-1.62,-13.37,-18.41,-18.41
-0.07,1.59,-1.59,-38.15,-38.15,-38.15
-0.26,1.94,-0.32,-68.11,-68.11,-68.11
-1.39,1.84,0.91,-88.69,-88.69,-88.69
-3.14,1.44,1.62,-100.73,-100.73,-100.73
-4.65,0.65,2.57,-105.70,-105.70,-105.70
-6.28,-0.17,3.58,-99.47,-99.47,-99.47
-7.04,-0.34,4.13,-91.07,-91.07,-87.71
-5.48,1.73,5.05,-60.97,-60.97,-60.97
-4.39,2.56,5.71,-63.77,-64.19,-64.19
-4.03,3.14,6.93,-66.71,-66.71,-66.78
-3.43,2.97,6.92,-67.27,-67.27,-67.55
0.02,1.96,7.20,-50.54,-50.54,-50.54
-1.23,0.99,7.92,-32.97,-30.52,-30.52
-0.79,0.31,7.57,-14.84,-11.76,-11.76
0.03,0.04,7.30,20.09,20.09,24.08
0.60,0.64,7.26,46.13,46.13,49.35
0.59,1.45,7.27,67.27,68.95,68.95
1.57,2.48,6.67,77.07,77.07,78.12
2.73,3.01,5.37,87.71,87.71,89.11
3.29,3.12,4.46,97.02,97.02,97.02
4.12,3.66,3.56,105.77,105.77,105.77
5.83,4.80,2.83,103.95,103.95,103.95
8.00,5.66,1.92,91.70,91.70,91.70
10.37,6.14,1.67,82.88,82.88,82.39
12.88,7.46,2.23,80.92,79.87,79.87
16.51,8.83,2.94,63.49,63.49,63.49
18.49,8.49,3.63,50.12,50.12,49.21
19.52,8.11,5.08,49.77,49.77,49.98
21.14,8.54,5.80,48.51,47.88,47.88
19.01,7.84,6.43,41.58,41.58,41.58
16.70,6.56,6.77,37.52,37.52,37.52
15.47,5.58,7.26,41.30,41.30,41.30
15.79,5.86,7.93,48.44,48.58,48.58
16.09,6.26,8.13,48.51,48.02,48.02
16.53,6.33,8.23,48.58,48.58,48.58
16.48,5.77,7.70,58.03,59.64,59.64
17.54,6.25,7.72,68.04,69.02,69.02
18.29,6.82,6.59,70.14,70.14,69.86
17.71,7.47,5.98,67.20,67.20,66.64
16.55,7.38,5.51,64.61,64.61,64.61
15.74,7.71,4.84,64.40,64.40,64.40
14.49,8.02,3.94,58.80,57.40,57.40
11.97,7.59,3.35,28.00,26.53,26.53
11.13,7.04,2.99,20.58,20.58,20.58
10.07,6.31,2.38,21.63,21.63,21.63
8.97,5.26,2.41,29.47,29.47,31.22
8.03,3.28,0.05,65.59,70.28,70.28
7.89,2.47,-0.95,87.22,87.22,87.22
6.59,2.33,-2.07,103.88,105.63,105.63
5.10,1.88,-1.88,116.34,118.02,118.02
4.12,2.05,-1.95,129.43,129.43,133.70
1.92,3.28,-2.61,137.55,135.80,135.80
2.13,3.22,-2.72,131.25,130.62,130.62
2.54,3.02,-2.84,129.78,129.78,129.78
2.72,3.61,-3.13,139.09,139.93,139.93
2.87,4.48,-3.02,144.41,144.41,144.62
3.23,4.86,-3.24,144.27,144.27,144.27
3.10,5.38,-3.63,141.05,141.05,141.05
2.05,6.31,-3.66,139.44,138.25,138.25
1.14,7.35,-4.09,132.51,132.51,129.22
-0.06,8.66,-4.53,115.43,115.43,108.22
-7.29,13.89,-5.41,75.74,75.74,75.74
-16.04,23.30,-9.23,-52.22,-50.75,-50.75
-8.59,17.88,-7.43,-136.08,-136.08,-145.6
1.14,11.38,-3.85,-173.53,-173.53,-173.53
3.41,6.96,-1.42,-139.16,-139.16,-139.16
2.92,5.43,-0.66,-88.41,-88.41,-88.41
2.59,5.13,0.19,-21.91,-21.91,-21.91
2.12,5.71,0.44,54.60,54.60,54.60
2.78,10.93,-1.48,113.19,112.77,112.77
3.55,11.72,-1.75,105.35,103.88,103.88
3.50,12.17,-1.82,88.76,86.87,86.87
2.68,12.25,-2.16,71.96,69.51,69.51
1.97,11.99,-2.45,48.93,45.57,45.57
1.56,11.75,-1.97,28.14,17.43,17.43
1.52,11.51,-1.70,0.35,-2.80,-9.03
1.36,10.83,-1.53,-27.44,-27.44,-29.89
0.96,10.20,-2.19,-46.76,-46.76,-46.76
0.11,8.37,-2.65,-72.80,-73.99,-76.30
-0.42,7.14,-3.03,-80.64,-80.64,-80.85
-1.25,6.37,-2.68,-74.34,-74.34,-74.34
-1.80,6.11,-2.98,-58.45,-58.45,-58.45
-1.89,6.33,-3.44,-43.26,-38.08,-38.08
-1.45,6.68,-4.24,-23.03,-23.03,-18.27
-0.86,6.78,-4.58,-4.55,0.00,0.00
-0.54,6.80,-4.61,13.30,13.30,17.36
-0.14,6.86,-4.68,27.72,27.72,29.89
0.45,7.13,-4.57,29.68,29.68,29.68
1.11,7.22,-4.29,9.52,9.52,6.23
1.94,7.45,-3.59,-17.43,-21.56,-21.56
2.42,7.35,-2.57,-61.60,-61.60,-66.01
3.58,7.31,-2.21,-88.69,-97.58,-97.58
4.04,7.07,-1.94,-124.81,-142.73,-129.43
3.69,6.72,-1.29,-166.74,-166.74,-166.74
2.98,6.29,-0.67,-191.59,-191.59,-191.59
2.56,6.01,-0.03,-224.14,-224.14,-224.14
2.34,6.17,0.53,-245.28,-245.28,-245.28
2.51,5.91,0.55,-268.52,-268.52,-268.52
3.19,4.73,0.27,-288.68,-290.08,-290.08
3.80,3.39,0.75,-293.02,-292.32,-292.32
3.69,2.36,1.16,-279.58,-276.71,-276.71
4.58,1.33,1.30,-253.26,-253.26,-249.48
7.02,0.46,1.75,-213.43,-213.43,-209.09
8.85,0.33,1.51,-177.03,-177.03,-172.20
10.36,0.60,0.89,-138.95,-138.95,-134.26
11.36,1.05,0.48,-112.91,-105.28,-101.64
12.61,1.87,0.23,-82.32,-79.52,-79.52
13.72,2.85,0.08,-60.06,-60.06,-58.31
13.69,3.55,0.10,-47.32,-47.32,-45.71
13.36,3.99,0.15,-37.94,-34.93,-33.53
13.91,4.42,0.12,-25.90,-25.90,-21.63
14.52,5.34,-0.31,-13.23,-13.23,-13.23
14.34,5.92,-0.68,-5.67,-5.67,-5.67
13.73,6.28,-0.77,-3.08,-2.73,-2.73
13.02,6.37,-0.83,-1.33,-1.33,-1.33
12.17,6.36,-1.12,-1.40,-1.40,-1.40
11.69,6.36,-1.51,-1.40,-1.26,-1.26
10.74,6.26,-1.62,-1.05,-0.98,-0.98
9.62,6.04,-1.73,-1.82,-1.82,-1.82
9.05,5.71,-1.90,-3.64,-4.13,-4.13
8.89,5.32,-2.14,-5.04,-5.04,-5.04
9.05,4.79,-2.33,-4.13,-4.13,-4.13
9.21,4.46,-2.66,0.49,1.26,1.26
9.09,4.43,-2.74,5.11,6.93,8.05
8.26,4.05,-2.21,15.61,15.61,15.61
8.05,3.80,-2.30,24.99,24.99,24.99
8.02,3.65,-2.50,34.16,35.00,35.00
8.37,3.61,-2.72,39.41,39.41,39.97
8.78,3.57,-3.01,43.89,43.89,43.89
8.93,3.55,-3.17,46.20,46.20,46.20
9.31,3.69,-3.50,48.51,48.72,48.72
9.49,3.78,-3.59,49.00,49.00,48.79
9.81,3.87,-3.97,46.76,46.76,46.34
10.04,3.91,-4.19,43.47,43.47,42.98
9.79,3.62,-4.17,40.53,40.53,40.11
9.14,3.29,-3.85,36.82,36.82,36.82
8.66,3.12,-3.99,33.88,32.48,32.48
8.52,3.09,-4.26,28.07,28.07,26.46
8.40,3.04,-4.47,19.81,19.81,19.81
8.39,2.99,-4.64,14.35,12.11,12.11
8.26,2.87,-4.73,7.42,7.42,7.42
8.26,2.76,-4.90,3.50,3.15,3.15
8.38,2.58,-5.01,1.68,1.61,1.61
8.57,2.34,-5.22,0.70,0.70,0.63
8.81,2.18,-5.36,0.28,0.28,0.28
9.00,2.10,-5.48,-0.63,-0.63,-0.63
8.86,1.93,-5.43,-1.12,-1.12,-1.12
8.79,1.65,-5.30,-0.77,-0.77,-0.77
8.50,1.47,-5.13,0.35,0.35,0.35
8.31,1.29,-5.06,0.77,1.19,1.19
8.28,1.28,-5.14,1.12,1.12,1.12
8.27,1.29,-5.18,0.70,0.70,0.70
8.19,1.26,-5.10,0.49,0.42,0.42
8.10,1.25,-5.00,0.14,0.14,0.14
8.01,1.30,-4.93,-1.47,-1.47,-1.47
8.47,1.60,-4.83,-4.76,-4.76,-4.76
9.18,2.01,-4.58,-10.50,-11.06,-11.06
9.93,2.21,-4.57,-13.72,-13.72,-13.72
10.27,2.35,-4.58,-15.05,-15.19,-15.19
10.11,2.39,-4.46,-15.40,-15.33,-15.26
9.35,2.32,-3.96,-14.49,-14.49,-14.49
8.55,2.15,-3.27,-11.97,-11.62,-11.62
7.92,2.03,-2.96,-9.59,-8.47,-8.47
7.77,2.05,-2.92,-6.86,-6.72,-6.30
8.14,2.18,-3.41,-5.39,-5.25,-5.25
8.24,2.27,-3.46,-4.83,-4.76,-4.76
8.67,2.57,-3.87,-4.27,-4.20,-4.20
8.70,2.62,-4.04,-3.99,-3.99,-3.78
8.65,2.65,-4.01,-3.57,-3.57,-3.78
8.72,2.71,-4.21,-4.06,-4.06,-4.06
8.67,2.73,-4.20,-4.62,-4.83,-4.83
8.62,2.72,-4.15,-5.25,-5.53,-5.53
8.71,2.74,-4.29,-5.60,-5.60,-5.60
8.59,2.75,-4.33,-4.48,-4.48,-4.48
8.56,2.74,-4.40,-2.17,-2.17,-2.17
8.28,2.72,-4.36,0.28,0.28,0.28
8.14,2.63,-4.26,4.41,5.11,5.11
7.93,2.46,-4.29,15.40,15.40,17.99
7.85,2.52,-4.28,23.52,23.52,24.29
7.86,2.57,-4.35,30.17,30.17,30.17
7.88,2.64,-4.35,33.74,33.74,34.65
8.01,2.73,-4.61,41.79,41.79,41.79
8.03,2.71,-4.64,44.59,44.59,44.59
7.95,2.74,-4.53,46.97,47.18,47.18
7.92,3.03,-4.58,47.74,47.53,47.53
8.03,3.21,-4.60,45.71,45.71,45.29
7.95,3.24,-4.59,40.53,40.53,40.53
8.23,3.23,-4.80,36.26,36.26,36.26
8.26,3.11,-4.81,31.64,31.64,31.64
8.17,2.97,-4.81,28.42,28.00,28.00
8.14,2.94,-4.77,23.73,23.17,23.17
8.04,2.94,-4.72,18.62,17.99,17.99
8.14,3.01,-4.81,14.07,11.69,11.69
8.06,2.95,-4.92,6.93,6.23,6.23
8.10,2.88,-4.95,0.00,0.00,-0.70
8.29,2.85,-5.06,-3.78,-4.97,-5.60
8.21,2.81,-4.94,-8.61,-8.61,-9.94
8.31,2.80,-5.04,-14.77,-14.77,-15.54
8.31,2.77,-5.00,-21.14,-21.14,-21.14
8.26,2.72,-4.95,-25.62,-26.25,-27.58
8.42,2.64,-5.04,-30.38,-30.80,-30.80
8.48,2.56,-5.11,-34.02,-34.30,-34.30
8.37,2.41,-4.96,-36.33,-36.33,-36.47
8.30,2.35,-5.01,-37.45,-37.45,-37.59
8.40,2.29,-5.03,-38.71,-38.71,-38.71
8.28,2.23,-4.96,-38.85,-38.85,-38.85
8.19,2.13,-4.80,-38.08,-38.08,-38.08
8.20,2.12,-4.83,-36.82,-36.82,-36.82
8.31,2.08,-4.85,-35.35,-35.35,-35.35
8.32,1.97,-4.84,-31.99,-31.57,-31.57
8.37,1.93,-4.85,-28.42,-27.86,-27.86
8.26,1.91,-4.79,-22.89,-22.89,-22.40
8.29,1.98,-4.86,-19.81,-18.69,-18.13
8.07,1.94,-4.69,-14.07,-14.07,-14.07
8.00,1.87,-4.56,-8.40,-7.84,-7.84
8.01,1.90,-4.57,-4.69,-3.01,-3.01
8.15,1.95,-4.66,-0.42,0.21,1.19
8.19,2.01,-4.68,4.62,5.32,5.32
8.18,2.09,-4.71,8.61,9.10,9.10
8.21,2.17,-4.74,14.84,14.84,14.84
8.05,2.23,-4.68,17.15,17.15,17.15
8.13,2.29,-4.70,19.11,19.32,19.32
8.24,2.39,-4.73,20.02,20.09,20.23
8.28,2.47,-4.75,20.72,20.79,20.79
8.28,2.60,-4.71,21.00,21.00,21.00
8.26,2.68,-4.75,20.58,20.16,20.16
8.26,2.70,-4.79,19.18,18.90,18.55
8.08,2.71,-4.72,17.29,17.15,17.15
8.03,2.73,-4.68,16.24,15.96,15.96
7.99,2.79,-4.67,14.70,14.42,14.42
8.11,2.86,-4.76,13.09,13.09,12.74
8.19,2.81,-4.78,11.34,11.34,11.20
8.32,2.83,-4.89,11.20,11.20,11.34
8.35,2.79,-4.92,11.69,11.76,11.76
8.16,2.76,-4.72,12.67,12.67,12.81
8.06,2.82,-4.65,12.67,12.67,12.60
8.05,2.90,-4.67,11.83,11.69,11.69
8.13,2.94,-4.79,9.59,9.59,9.31
8.21,2.96,-4.82,7.98,7.98,7.98
8.25,2.95,-4.85,6.51,6.51,6.51
8.32,2.98,-4.94,4.90,4.90,4.90
8.37,2.96,-5.05,1.89,1.68,1.68
8.35,2.90,-5.06,-0.42,-0.70,-0.70
8.21,2.81,-4.99,-2.31,-2.59,-2.59
8.16,2.74,-4.99,-5.18,-5.18,-5.67
8.28,2.78,-5.15,-8.96,-8.96,-9.38
8.31,2.67,-5.13,-12.81,-12.81,-13.16
8.18,2.44,-5.01,-14.77,-14.77,-14.84
8.16,2.37,-5.01,-15.89,-15.89,-15.89
8.14,2.32,-5.05,-17.29,-17.29,-17.29
8.15,2.26,-5.05,-17.64,-17.64,-17.64
8.02,2.15,-4.88,-16.24,-16.24,-16.24
7.86,2.01,-4.68,-14.00,-13.09,-13.09
7.80,1.96,-4.50,-10.29,-10.29,-9.24
7.96,2.05,-4.49,-6.79,-6.79,-6.79
8.27,2.12,-4.71,-3.92,-3.92,-3.92
8.60,2.12,-4.65,-0.14,-0.14,17.78
8.48,2.13,-4.56,1.47,1.96,1.96
8.26,2.15,-4.44,2.87,2.87,3.22
7.95,2.16,-4.27,3.99,3.99,3.99
7.73,2.16,-4.20,4.27,4.27,4.27
7.65,2.15,-4.22,4.41,4.41,4.41
7.69,2.19,-4.36,4.48,4.48,4.62
7.95,2.23,-4.68,4.76,4.76,4.62
8.00,2.21,-4.86,4.97,4.97,4.97
8.14,2.21,-4.99,5.39,5.39,5.39
8.06,2.17,-5.02,6.02,6.02,6.02
8.16,2.16,-4.99,7.63,7.91,7.91
8.32,2.22,-5.03,9.31,9.52,10.22
8.46,2.28,-4.99,11.90,12.25,12.95
8.26,2.20,-4.74,15.40,15.40,15.75
8.08,2.16,-4.50,17.99,17.99,17.99
7.94,2.18,-4.42,18.13,18.13,18.13
7.95,2.20,-4.46,17.08,16.94,16.73
8.02,2.23,-4.50,14.63,14.35,14.35
8.09,2.25,-4.53,10.92,10.92,10.57
8.14,2.22,-4.58,7.63,7.63,7.35
8.17,2.22,-4.66,3.01,3.01,3.01
8.09,2.11,-4.58,0.35,0.35,0.35
8.01,2.04,-4.56,-1.61,-1.61,-1.61
8.01,2.04,-4.54,-2.10,-2.24,-2.24
8.23,2.16,-4.75,-2.66,-2.66,-2.73
8.22,2.12,-4.81,-2.87,-2.66,-2.66
8.30,2.08,-4.95,-1.89,-1.89,-1.75
8.32,2.07,-4.97,-0.91,-0.91,-0.70
8.45,2.14,-4.96,0.00,0.00,0.00
8.57,2.33,-5.12,-0.56,-0.56,-0.56
8.68,2.44,-5.13,-1.75,-1.75,-1.75
8.58,2.41,-4.96,-2.38,-2.38,-2.38
8.45,2.36,-4.85,-2.24,-2.24,-2.24
8.34,2.26,-4.70,-1.40,-1.40,-0.98
8.30,2.24,-4.62,0.63,0.63,0.63
8.31,2.30,-4.62,1.68,1.68,1.68
8.36,2.35,-4.61,1.47,1.26,1.26
8.37,2.41,-4.69,0.07,-0.56,-0.56
8.48,2.40,-4.79,-2.52,-2.52,-3.01
8.53,2.38,-4.87,-5.18,-5.53,-5.53
8.55,2.33,-4.98,-7.35,-7.70,-7.70
8.38,2.24,-4.99,-9.45,-9.66,-9.66
8.16,2.18,-4.96,-11.62,-11.62,-11.83
7.98,2.15,-4.98,-15.19,-15.19,-15.54
7.89,2.14,-5.02,-18.06,-18.06,-18.41
7.87,2.07,-5.08,-19.81,-20.23,-20.44
7.93,2.01,-5.16,-20.72,-20.72,-20.44
7.66,1.91,-4.91,-18.62,-18.62,-18.62
7.44,1.84,-4.59,-14.70,-14.70,-14.70
7.31,1.80,-4.43,-11.27,-11.27,-11.27
7.46,1.83,-4.35,-7.21,-7.21,-7.21
7.81,1.85,-4.47,-3.22,-2.73,-2.73
8.29,1.95,-4.57,-0.91,-0.70,-0.70
8.61,2.03,-4.83,0.49,0.49,0.49
8.89,2.11,-4.90,0.56,0.56,0.49
8.92,2.04,-4.88,0.21,0.21,0.21
8.92,2.01,-4.97,-0.35,-0.35,-0.35
8.78,1.96,-4.97,-0.42,-0.42,-0.35
8.55,2.02,-4.95,0.00,0.00,0.00
8.36,2.09,-4.96,-0.70,-0.70,-0.70
8.22,2.15,-4.99,-1.47,-1.47,-1.68
7.99,2.13,-4.80,-1.89,-1.89,-1.89
7.70,2.03,-4.63,-1.05,-0.91,-0.91
7.53,1.99,-4.39,0.84,0.84,1.19
7.57,2.12,-4.36,2.94,2.94,2.94
7.89,2.16,-4.42,3.15,3.08,3.08
8.18,2.26,-4.50,2.59,2.59,2.45
8.46,2.32,-4.52,1.96,1.96,1.96
8.71,2.31,-4.68,0.98,0.77,0.77
8.73,2.29,-4.68,-0.70,-0.70,-0.91
8.84,2.23,-4.74,-2.03,-2.03,-2.17
8.76,2.24,-4.72,-3.85,-3.85,-3.85
8.86,2.31,-4.93,-5.81,-5.81,-5.81
8.77,2.27,-4.95,-6.93,-7.14,-7.14
8.51,2.18,-4.85,-7.07,-7.00,-7.00
8.26,2.14,-4.75,-6.44,-6.44,-6.23
7.98,2.11,-4.62,-5.25,-5.25,-5.25
7.86,2.12,-4.52,-3.71,-3.71,-3.71
7.87,2.12,-4.45,-2.24,-2.24,-1.89
8.07,2.18,-4.53,0.00,0.56,0.56
8.23,2.14,-4.59,2.59,2.59,2.80
8.38,2.16,-4.64,4.41,4.41,4.41
8.61,2.24,-4.85,3.29,3.29,3.29
8.84,2.29,-4.98,2.38,1.96,1.96
8.75,2.27,-4.94,1.47,1.47,1.26
8.58,2.19,-4.89,1.19,1.19,1.19
8.41,2.13,-4.84,1.12,1.12,1.19
8.22,2.17,-4.82,0.77,0.77,0.77
8.14,2.20,-4.82,-0.21,-0.21,-0.21
8.05,2.19,-4.81,-0.77,-0.77,-0.77
8.05,2.13,-4.85,-0.63,-0.49,-0.49
7.91,2.09,-4.74,0.35,0.35,0.42
7.90,2.05,-4.73,1.12,1.12,1.12
8.01,2.12,-4.84,1.19,1.19,1.19
8.06,2.12,-4.84,0.63,0.63,0.63
8.19,2.18,-4.82,0.21,0.00,0.00
8.29,2.18,-4.88,-0.56,-0.56,-0.77
8.33,2.07,-4.89,-1.75,-1.75,-1.75
8.35,2.07,-4.93,-2.03,-2.03,-2.03
8.34,2.08,-4.94,-2.31,-2.31,-2.31
8.21,2.05,-4.87,-2.52,-2.38,-2.38
8.14,2.05,-4.90,-2.66,-2.66,-2.59
8.00,1.98,-4.81,-2.24,-2.24,-2.24
8.06,1.96,-4.86,-1.12,-0.63,-0.28
7.93,1.85,-4.75,4.55,4.55,4.55
7.99,1.93,-4.74,6.58,6.58,6.58
8.10,1.98,-4.78,7.07,7.07,7.07
8.15,2.01,-4.75,7.35,7.35,7.35
8.28,2.06,-4.81,7.56,7.56,7.56
8.51,2.12,-4.88,7.56,7.56,7.56
8.55,2.14,-4.89,7.42,7.42,7.35
8.56,2.16,-4.87,6.86,6.86,6.72
8.48,2.19,-4.84,5.60,5.60,5.60
8.36,2.16,-4.77,4.90,4.83,4.83
8.28,2.17,-4.74,3.92,3.92,3.92
8.17,2.20,-4.73,3.15,3.15,3.15
8.08,2.18,-4.70,2.31,2.10,2.10
8.04,2.19,-4.67,1.33,1.33,1.33
8.07,2.17,-4.71,0.91,0.77,0.70
8.15,2.15,-4.70,0.28,0.00,-0.07
8.17,2.15,-4.70,-0.77,-0.77,-1.26
8.50,2.19,-4.93,-4.48,-4.90,-4.90
8.49,2.16,-4.86,-6.09,-6.09,-6.23
8.48,2.10,-4.86,-6.58,-6.58,-6.72
8.38,2.07,-4.80,-6.51,-6.51,-6.51
8.26,2.00,-4.68,-5.88,-5.88,-5.88
8.20,1.96,-4.69,-4.41,-4.41,-4.41
8.20,1.98,-4.70,-3.57,-3.36,-3.36
8.25,2.05,-4.80,-2.38,-2.38,-2.31
8.27,2.04,-4.78,-1.54,-1.54,-1.47
8.29,2.01,-4.80,-0.56,-0.56,-0.28
8.29,2.03,-4.78,0.70,0.70,0.70
8.31,2.06,-4.79,0.91,0.91,0.91
8.41,2.08,-4.87,0.77,0.77,0.77
8.39,2.10,-4.89,0.84,0.84,0.98
8.29,2.07,-4.81,1.26,1.26,1.40
8.15,2.07,-4.78,1.61,1.61,1.61
8.23,2.11,-4.82,1.26,1.26,1.26
8.28,2.13,-4.86,0.35,0.35,0.42
8.25,2.14,-4.80,0.35,0.35,0.35
8.24,2.19,-4.88,-0.28,-0.28,-0.28
8.13,2.19,-4.82,-1.26,-1.26,-1.26
8.15,2.18,-4.84,-2.17,-2.24,-2.24
8.12,2.15,-4.82,-2.59,-2.66,-2.66
8.17,2.20,-4.86,-3.01,-3.01,-3.08
8.10,2.19,-4.80,-3.71,-3.71,-3.85
8.15,2.20,-4.85,-4.13,-4.13,-4.13
8.10,2.17,-4.84,-4.55,-4.55,-4.55
8.13,2.12,-4.88,-4.20,-4.20,-4.20
8.15,2.16,-4.83,-3.85,-3.85,-3.71
8.22,2.21,-4.88,-3.78,-3.78,-3.78
8.33,2.27,-4.91,-4.27,-4.34,-4.34
8.34,2.23,-4.88,-5.11,-5.11,-5.18
8.25,2.19,-4.82,-5.53,-5.53,-5.53
8.27,2.19,-4.88,-5.46,-5.46,-5.46
8.27,2.22,-4.86,-5.46,-5.25,-5.25
8.20,2.23,-4.83,-5.18,-5.18,-5.25
8.16,2.25,-4.80,-5.74,-5.74,-5.74
8.15,2.25,-4.82,-6.30,-6.30,-6.30
8.16,2.25,-4.87,-6.23,-6.23,-6.30
8.03,2.16,-4.74,-5.25,-5.25,-5.25
7.98,2.08,-4.67,-3.43,-3.43,-3.29
8.03,2.14,-4.79,-2.45,-2.45,-2.45
8.20,2.22,-4.89,-2.73,-2.87,-2.87
8.35,2.29,-5.03,-3.29,-3.29,-3.29
8.26,2.19,-4.90,-3.43,-3.43,-3.43
8.09,2.14,-4.81,-2.45,-2.38,-2.38
7.97,2.07,-4.75,-0.84,-0.84,-0.70
7.98,2.08,-4.79,-0.28,-0.28,-0.07
8.05,2.06,-4.80,0.21,0.21,0.21
8.13,2.12,-4.78,0.63,0.63,0.63
8.25,2.11,-4.80,0.98,1.05,1.05
8.25,2.12,-4.76,1.82,1.82,1.96
8.26,2.11,-4.77,2.66,2.66,2.94
8.30,2.13,-4.78,3.29,3.29,3.29
8.42,2.17,-4.85,3.29,3.29,3.29
8.47,2.17,-4.96,2.17,2.10,2.10
8.41,2.14,-5.02,1.40,1.40,1.40
8.22,2.14,-4.93,1.33,1.26,1.26
8.09,2.06,-4.91,1.75,1.75,1.89
7.90,2.03,-4.86,2.59,2.80,2.87
7.82,2.08,-4.81,3.71,3.71,4.13
7.84,2.08,-4.80,5.67,5.67,5.88
7.93,2.08,-4.80,7.63,7.63,7.63
8.04,2.04,-4.72,12.67,12.67,12.67
8.15,2.12,-4.73,13.72,13.86,13.86
8.33,2.23,-4.79,14.07,14.07,13.93
8.48,2.31,-4.84,13.37,13.37,13.44
8.60,2.34,-4.90,12.32,12.32,12.32
8.58,2.34,-4.89,11.55,11.34,11.34
8.50,2.30,-4.88,10.36,10.36,10.29
8.37,2.26,-4.83,8.82,8.82,8.68
8.26,2.26,-4.82,7.49,7.49,7.49
8.22,2.29,-4.86,5.39,5.39,4.76
8.17,2.31,-4.89,2.94,2.94,2.94
8.10,2.29,-4.91,0.49,0.42,0.42
8.06,2.28,-4.90,-0.98,-0.98,-1.26
8.06,2.23,-4.90,-2.38,-2.38,-2.38
8.00,2.19,-4.85,-2.66,-2.59,-2.59
8.05,2.18,-4.83,-2.52,-2.52,-2.52
8.20,2.23,-4.89,-2.73,-2.73,-2.66
8.27,2.21,-4.88,-2.59,-2.66,-2.59
8.36,2.15,-4.90,-2.17,-2.17,-2.03
8.36,2.16,-4.88,-1.33,-1.33,-1.33
8.42,2.19,-4.92,0.07,0.07,0.14
8.47,2.22,-5.00,0.77,0.77,0.77
8.36,2.18,-4.90,2.52,2.87,2.87
8.19,2.17,-4.87,4.27,4.97,4.97
8.10,2.14,-4.80,7.28,7.28,7.70
8.11,2.13,-4.79,11.06,11.06,11.06
8.21,2.16,-4.80,13.30,13.30,13.30
8.39,2.22,-4.84,15.68,16.31,16.31
8.33,2.23,-4.82,18.06,18.06,18.06
8.15,2.27,-4.77,19.74,19.74,19.74
7.97,2.30,-4.66,20.51,20.51,20.51
7.93,2.34,-4.72,19.88,19.88,19.88
8.13,2.39,-4.82,18.69,18.69,18.69
8.17,2.40,-4.85,17.78,17.64,17.64
8.27,2.43,-4.94,16.31,16.31,16.31
8.24,2.49,-4.94,13.37,13.37,13.37
8.09,2.52,-4.91,10.71,10.71,10.71
8.06,2.54,-4.91,7.56,7.56,7.56
8.00,2.56,-4.88,4.13,4.13,4.13
8.00,2.57,-4.87,0.56,0.56,0.56
7.93,2.56,-4.74,-3.15,-3.15,-3.15
7.95,2.51,-4.75,-6.93,-6.93,-6.93
7.94,2.50,-4.71,-10.71,-10.71,-10.71
8.18,2.58,-4.82,-13.51,-14.42,-14.42
8.41,2.66,-4.75,-17.08,-17.71,-17.71
8.49,2.65,-4.41,-18.97,-18.97,-18.97
8.54,2.62,-4.22,-18.34,-18.34,-18.34
9.07,2.58,-4.20,-17.22,-17.08,-17.08
9.67,2.23,-4.47,-16.24,-16.24,-16.10
10.01,1.74,-4.61,-14.63,-14.63,-14.63
10.72,1.15,-5.03,-14.84,-14.84,-14.98
11.15,0.23,-5.07,-16.73,-16.73,-16.73
10.98,-0.40,-4.38,-22.40,-23.17,-23.17
10.62,-0.95,-4.00,-26.60,-28.14,-28.14
10.31,-1.50,-3.62,-29.54,-29.54,-29.54
9.82,-1.87,-3.35,-26.18,-25.55,-25.55
9.14,-1.75,-3.18,-21.56,-21.07,-21.07
8.42,-1.29,-3.01,-20.58,-20.58,-21.07
7.56,-0.61,-3.15,-27.93,-27.93,-29.68
6.92,0.02,-3.24,-51.73,-51.73,-54.74
6.42,0.29,-3.31,-78.47,-78.47,-78.47
6.36,0.48,-3.40,-106.26,-106.26,-106.26
7.40,0.39,-4.13,-133.42,-133.42,-133.42
8.80,0.24,-4.57,-140.00,-139.58,-139.58
9.44,-0.02,-4.38,-132.37,-124.11,-124.11
9.56,-0.33,-3.36,-97.93,-97.93,-97.93
9.48,-0.59,-3.04,-57.61,-57.61,-57.61
9.63,-0.64,-3.00,-37.38,-31.29,-31.29
9.42,-0.78,-2.93,-15.05,-15.05,-10.08
9.27,-0.90,-3.07,6.09,8.12,8.12
8.74,-0.78,-2.95,45.15,45.78,45.78
8.57,-0.48,-2.92,47.53,47.88,47.88
8.52,-0.11,-3.08,47.53,46.97,46.62
8.61,0.19,-3.39,44.87,44.45,44.10
8.72,0.28,-3.63,41.79,41.79,41.79
8.67,0.42,-3.69,41.23,41.23,41.44
8.68,0.52,-3.70,42.49,42.49,42.49
8.84,0.83,-3.90,42.77,42.77,42.77
9.00,1.13,-4.11,41.09,41.09,41.09
8.97,1.23,-4.15,39.48,39.41,39.41
9.16,1.27,-4.34,38.43,38.43,38.43
9.52,1.34,-4.48,37.94,37.94,37.94
9.66,1.50,-4.44,37.31,37.31,37.31
9.67,1.56,-4.17,36.47,36.47,36.47
9.64,1.54,-3.99,33.81,33.81,33.81
9.60,1.56,-3.95,31.50,31.01,31.01
9.54,1.55,-3.80,26.81,26.81,26.32
9.37,1.59,-3.72,23.59,22.40,21.84
9.05,1.59,-3.58,17.78,17.78,17.78
8.74,1.53,-3.54,12.81,12.18,12.18
8.47,1.57,-3.53,8.68,8.12,8.12
8.42,1.55,-3.79,3.50,3.15,3.15
8.20,1.57,-3.76,0.00,0.00,-0.35
8.44,1.55,-4.07,-1.82,-1.82,-1.82
8.52,1.52,-4.28,-2.80,-2.80,-2.73
8.71,1.47,-4.45,-2.45,-2.24,-2.24
8.80,1.41,-4.47,-1.47,-1.12,-1.12
8.96,1.44,-4.56,-0.42,-0.21,0.35
9.06,1.30,-4.70,7.70,8.33,8.33
8.95,1.28,-4.72,12.88,13.58,13.58
8.82,1.27,-4.72,16.73,18.62,18.62
8.69,1.31,-4.67,21.14,21.56,22.54
8.55,1.38,-4.67,25.34,25.76,25.76
8.44,1.43,-4.64,27.58,27.58,27.58
8.51,1.70,-4.87,27.44,27.44,27.30
8.54,1.84,-4.93,26.04,25.55,25.27
8.52,1.89,-4.99,23.45,23.45,22.40
8.46,1.97,-5.05,20.23,20.23,19.88
8.27,1.93,-4.96,16.38,16.38,15.96
7.86,1.92,-4.80,11.97,11.97,11.97
7.76,1.96,-4.73,9.87,9.66,9.66
7.92,2.02,-4.78,8.33,8.12,8.12
8.13,2.09,-4.87,6.23,5.95,5.95
8.14,2.11,-4.86,3.43,3.43,3.15
8.29,2.12,-4.94,1.61,1.05,0.84
8.27,2.06,-4.92,-0.63,-0.63,-1.47
8.24,2.08,-4.91,-3.71,-3.71,-3.71
8.15,2.01,-4.92,-7.35,-7.35,-7.35
8.15,2.02,-4.96,-10.78,-10.78,-10.78
8.18,1.99,-5.00,-14.49,-14.49,-15.33
8.17,1.90,-5.02,-17.50,-17.43,-17.43
8.13,1.85,-4.97,-18.62,-18.62,-18.62
8.12,1.82,-4.94,-18.55,-18.48,-18.41
8.17,1.81,-4.96,-17.78,-17.78,-17.78
8.16,1.70,-4.89,-15.68,-15.68,-15.40
8.10,1.65,-4.78,-13.16,-13.16,-13.16
8.16,1.64,-4.78,-10.08,-10.08,-10.08
8.18,1.65,-4.83,-6.16,-6.16,-6.16
8.20,1.67,-4.84,-3.15,-3.15,-3.15
8.24,1.69,-4.85,1.40,1.82,1.82
8.34,1.67,-4.82,5.53,6.23,6.23
8.42,1.70,-4.78,9.59,10.22,10.22
8.54,1.71,-4.76,15.19,15.19,15.68
8.61,1.81,-4.84,18.27,18.27,18.69
8.71,1.86,-4.86,22.05,22.05,22.05
8.59,1.93,-4.79,23.94,24.50,24.50
8.49,2.01,-4.77,26.18,26.18,26.53
8.46,2.09,-4.80,27.51,27.51,27.51
8.45,2.12,-4.80,28.28,28.28,28.28
8.35,2.15,-4.74,29.47,29.47,29.47
8.28,2.19,-4.73,30.17,30.38,30.38
8.29,2.26,-4.74,30.45,30.45,30.38
8.26,2.33,-4.72,29.61,29.61,29.40
8.29,2.36,-4.70,27.65,27.30,27.30
8.37,2.43,-4.75,24.29,24.29,23.24
8.49,2.46,-4.77,20.44,20.44,20.44
8.53,2.48,-4.80,15.96,15.96,15.96
8.58,2.48,-4.84,12.46,12.46,11.55
8.46,2.40,-4.81,8.96,8.96,8.96
8.48,2.43,-4.84,4.90,4.90,4.90
8.37,2.41,-4.80,2.17,1.75,1.75
8.34,2.41,-4.79,-2.45,-2.45,-2.45
8.35,2.40,-4.86,-6.51,-6.51,-6.86
8.32,2.35,-4.81,-9.80,-9.80,-10.29
8.40,2.35,-4.93,-14.35,-14.35,-14.35
8.38,2.32,-4.96,-17.08,-17.08,-17.08
8.42,2.23,-5.05,-20.44,-20.44,-20.44
8.23,2.12,-4.95,-21.56,-21.56,-21.56
8.16,1.99,-4.92,-21.63,-21.63,-21.63
8.13,1.95,-4.93,-21.56,-21.56,-21.56
8.14,1.94,-4.96,-21.42,-21.42,-21.42
8.17,1.90,-4.96,-21.42,-21.42,-21.42
8.23,1.86,-5.03,-20.93,-20.93,-20.93
8.18,1.85,-4.99,-19.81,-19.81,-19.81
8.15,1.81,-4.96,-18.90,-18.90,-18.90
7.99,1.71,-4.86,-16.38,-16.38,-16.38
8.00,1.70,-4.81,-14.49,-14.21,-14.21
8.02,1.78,-4.90,-12.39,-12.39,-12.39
8.10,1.79,-4.97,-10.50,-10.50,-10.15
8.12,1.76,-5.02,-8.40,-8.12,-8.12
8.04,1.72,-4.95,-5.46,-5.18,-5.18
8.04,1.73,-4.97,-2.03,-2.03,-2.03
8.00,1.78,-4.94,-0.63,-0.28,17.64
7.98,1.79,-4.93,0.84,1.19,1.19
7.94,1.86,-4.94,2.38,2.59,2.59
7.99,1.88,-4.92,3.78,4.06,4.06
8.00,1.89,-4.93,5.46,5.46,5.53
7.96,1.90,-4.93,6.86,6.86,7.00
7.88,1.92,-4.85,8.33,8.33,8.33
7.89,1.95,-4.84,8.75,8.75,8.89
7.90,2.00,-4.80,9.59,9.59,9.59
8.00,2.00,-4.83,10.29,10.29,10.29
8.09,2.03,-4.86,10.92,11.13,11.20
8.22,2.08,-4.87,11.62,11.69,11.69
8.26,2.14,-4.93,11.90,11.90,11.76
8.24,2.15,-4.90,11.83,11.83,11.83
8.17,2.20,-4.91,11.83,11.62,11.62
8.18,2.28,-4.88,11.34,11.34,11.06
8.21,2.34,-4.88,10.15,10.15,9.94
8.35,2.33,-4.92,9.17,9.17,9.17
8.17,2.29,-4.80,8.96,8.96,8.96
8.16,2.31,-4.74,8.68,8.68,8.68
8.24,2.41,-4.81,7.70,7.28,7.28
8.35,2.49,-4.93,4.62,4.62,4.62
8.48,2.46,-4.97,2.73,2.52,2.52
8.43,2.42,-4.87,0.77,0.77,0.70
8.23,2.28,-4.73,0.07,0.07,-0.14
8.26,2.31,-4.82,-0.84,-1.12,-1.12
8.41,2.34,-4.92,-2.73,-2.80,-2.80
8.37,2.28,-4.92,-4.06,-4.06,-4.06
8.30,2.24,-4.81,-4.34,-4.41,-4.41
8.10,2.22,-4.71,-4.62,-4.83,-4.83
8.15,2.20,-4.75,-5.11,-5.39,-5.39
8.21,2.18,-4.83,-6.02,-6.02,-6.02
8.25,2.15,-4.85,-6.44,-6.37,-6.37
8.29,2.13,-4.86,-6.51,-6.44,-6.44
8.27,2.12,-4.80,-6.65,-6.79,-6.79
8.32,2.13,-4.86,-7.14,-7.07,-7.07
8.19,2.11,-4.79,-7.28,-7.42,-7.42
8.26,2.09,-4.88,-7.56,-7.49,-7.49
8.23,2.11,-4.89,-7.70,-7.84,-7.84
8.29,2.10,-4.92,-8.05,-8.05,-8.05
8.33,2.09,-4.96,-7.70,-7.56,-7.56
8.28,2.08,-4.96,-7.21,-7.00,-6.79
8.18,2.06,-4.95,-6.51,-6.51,-6.23
8.13,2.01,-4.90,-5.67,-5.67,-5.25
8.18,1.96,-4.94,-4.55,-4.55,-4.48
8.24,1.97,-4.91,-3.43,-3.43,-3.15
8.25,1.98,-4.93,-2.66,-2.66,-2.52
8.20,1.98,-4.88,-2.24,-2.24,-2.17
8.10,2.00,-4.82,-1.75,-1.75,-1.82
8.07,2.03,-4.80,-1.89,-1.82,-1.89
8.14,2.08,-4.92,-2.10,-2.17,-2.17
8.10,2.02,-4.91,-1.96,-1.96,-1.82
8.11,1.99,-4.93,-1.33,-1.05,-0.91
8.16,2.02,-5.01,0.07,0.07,0.07
8.11,2.03,-4.93,1.19,1.26,1.26
8.06,2.08,-4.92,1.96,2.10,2.10
8.05,2.10,-4.90,2.80,2.80,2.94
8.06,2.09,-4.87,4.20,4.20,4.55
8.02,2.08,-4.82,5.46,5.46,5.60
8.15,2.12,-4.88,6.09,6.09,6.16
8.15,2.17,-4.91,6.02,6.02,6.09
8.20,2.21,-4.94,5.81,5.81,5.81
8.26,2.22,-4.95,5.88,5.88,5.88
8.19,2.16,-4.91,6.30,6.51,6.51
8.12,2.09,-4.84,7.42,7.56,7.91
8.07,2.10,-4.81,8.54,8.68,8.82
8.11,2.15,-4.86,8.82,8.82,8.82
8.15,2.20,-4.89,7.84,7.84,7.84
8.25,2.18,-4.90,6.79,6.79,6.79
8.31,2.15,-4.94,6.30,6.16,6.16
8.26,2.10,-4.88,5.88,5.88,5.81
8.19,2.11,-4.83,5.60,5.60,5.60
8.15,2.13,-4.83,4.83,4.83,4.83
8.16,2.14,-4.88,2.87,2.87,2.87
8.22,2.12,-4.88,2.38,2.24,2.24
8.26,2.08,-4.91,1.75,1.75,1.75
8.34,2.09,-4.93,1.26,1.12,0.98
8.31,2.08,-4.92,0.70,0.70,0.49
8.26,2.08,-4.88,-0.28,-0.28,-0.28
8.21,2.08,-4.86,-0.98,-0.98,-0.98
8.15,2.10,-4.84,-1.68,-1.68,-1.68
8.23,2.07,-4.91,-2.10,-2.10,-2.10
8.29,1.98,-4.95,-1.33,-1.19,-1.19
8.21,1.98,-4.88,-1.05,-1.05,-0.84
8.19,2.05,-4.91,-0.91,-0.77,-0.77
8.18,2.08,-4.93,-0.91,-0.91,-1.05
8.25,2.03,-4.97,-0.70,-0.70,-0.35
8.15,1.96,-4.86,1.05,1.05,1.05
8.13,1.98,-4.87,2.52,2.52,2.87
8.13,2.03,-4.91,3.29,3.29,3.43
8.15,2.12,-4.91,3.43,3.43,3.43
8.19,2.13,-4.92,3.22,3.15,3.15
8.29,2.19,-5.03,3.01,3.01,3.01
8.28,2.21,-4.98,3.08,3.08,3.08
8.21,2.17,-4.89,3.64,3.64,3.78
8.06,2.16,-4.86,4.27,4.27,4.34
7.99,2.18,-4.81,4.62,4.62,4.62
8.01,2.26,-4.86,4.55,4.55,4.48
8.08,2.24,-4.89,4.20,4.20,4.20
8.06,2.23,-4.83,4.13,4.06,4.06
8.10,2.27,-4.84,3.92,3.85,3.85
8.11,2.29,-4.84,2.87,2.66,2.66
8.17,2.31,-4.91,1.33,1.26,1.26
7.98,2.25,-4.80,-1.89,-2.03,-2.03
8.29,2.26,-4.95,-3.57,-3.64,-3.64
8.30,2.24,-4.88,-3.43,-3.15,-3.15
8.22,2.21,-4.81,-2.73,-2.73,-2.73
8.16,2.24,-4.74,-2.66,-2.59,-2.59
8.21,2.26,-4.76,-2.73,-2.73,-2.73
8.30,2.23,-4.79,-2.38,-2.38,-2.38
8.47,2.23,-4.88,-2.17,-2.17,-1.96
8.44,2.23,-4.89,-1.26,-1.26,-1.26
8.39,2.19,-4.91,-0.63,-0.42,-0.42
8.19,2.22,-4.86,0.07,0.07,0.07
8.07,2.22,-4.79,0.84,0.84,0.84
8.03,2.23,-4.77,1.75,1.75,1.75
8.09,2.21,-4.75,2.87,2.87,2.87
8.12,2.16,-4.72,4.20,4.34,4.34
8.22,2.18,-4.74,5.88,5.88,5.88
8.25,2.21,-4.74,7.07,7.07,7.07
8.21,2.28,-4.72,7.42,7.49,7.49
8.34,2.32,-4.80,7.14,7.21,7.21
8.39,2.35,-4.83,6.86,6.79,6.79
8.37,2.31,-4.77,7.00,7.00,7.07
8.26,2.29,-4.73,7.35,7.35,7.49
8.25,2.39,-4.76,7.77,7.77,7.77
8.18,2.42,-4.71,7.56,7.56,7.56
8.15,2.46,-4.73,7.14,6.93,6.93
8.20,2.49,-4.72,6.09,6.09,6.09
8.17,2.46,-4.73,4.62,4.62,4.62
8.17,2.43,-4.77,3.71,3.71,3.71
8.17,2.45,-4.78,3.01,2.87,2.87
8.08,2.44,-4.74,2.03,2.03,1.96
8.11,2.49,-4.80,1.19,0.77,0.70
8.07,2.47,-4.78,-0.42,-0.56,-0.56
8.14,2.45,-4.78,-2.03,-2.03,-2.10
8.18,2.43,-4.80,-2.59,-2.59,-2.66
8.17,2.41,-4.74,-3.15,-3.15,-3.22
8.18,2.41,-4.77,-3.43,-3.43,-3.43
8.16,2.37,-4.75,-3.57,-3.57,-3.71
8.20,2.40,-4.78,-3.71,-3.71,-3.78
8.10,2.35,-4.75,-3.57,-3.57,-3.36
8.12,2.34,-4.74,-2.73,-2.59,-2.52
8.03,2.25,-4.67,-1.05,-1.05,-0.84
8.10,2.23,-4.68,0.49,0.49,0.49
8.17,2.28,-4.72,1.68,1.68,1.68
8.26,2.29,-4.76,2.59,2.59,2.59
8.24,2.35,-4.77,3.43,3.43,3.43
8.19,2.37,-4.76,4.20,4.20,4.20
8.04,2.38,-4.63,8.61,8.96,8.96
8.14,2.44,-4.65,10.08,10.43,10.43
8.18,2.47,-4.66,11.20,11.20,11.41
8.28,2.56,-4.67,11.20,11.20,11.20
8.32,2.63,-4.69,7.14,6.93,6.93
8.29,2.63,-4.74,5.46,5.46,5.46
8.26,2.63,-4.80,3.64,3.50,3.50
8.24,2.64,-4.79,1.89,1.89,1.68
8.12,2.60,-4.73,0.35,0.21,0.21
8.03,2.57,-4.71,-0.63,-1.05,-1.05
7.98,2.56,-4.67,-1.47,-1.75,-1.75
7.97,2.55,-4.67,-2.24,-2.31,-2.59
7.98,2.51,-4.69,-3.08,-3.01,-3.01
8.08,2.48,-4.71,-3.50,-3.57,-3.57
8.18,2.46,-4.74,-3.71,-3.71,-3.71
8.26,2.44,-4.77,-4.34,-4.41,-4.41
8.32,2.52,-4.81,-5.46,-5.53,-5.53
8.36,2.49,-4.83,-6.23,-6.30,-6.30
8.28,2.44,-4.77,-6.37,-6.23,-6.23
8.22,2.38,-4.72,-5.88,-5.67,-5.53
8.13,2.39,-4.73,-4.83,-4.76,-4.76
8.09,2.38,-4.70,-3.64,-3.43,-3.43
8.10,2.38,-4.73,-2.59,-2.31,-2.31
8.12,2.38,-4.73,-1.40,-1.40,-1.40
8.18,2.41,-4.77,-0.49,-0.49,-0.49
8.07,2.40,-4.71,-0.07,-0.07,0.21
8.06,2.44,-4.70,0.07,0.07,0.07
8.13,2.47,-4.72,-0.07,-0.07,-0.07
8.21,2.49,-4.77,-0.63,-0.63,-0.77
8.14,2.53,-4.73,-0.84,-0.84,-0.84
8.04,2.53,-4.69,-1.12,-1.19,-1.33
8.14,2.62,-4.75,-3.50,-3.50,-3.50
8.02,2.54,-4.70,-2.59,-2.45,-2.45
8.02,2.56,-4.65,-2.17,-2.17,-2.17
8.16,2.60,-4.72,-1.61,-1.61,-1.61
8.16,2.57,-4.68,-1.75,-1.96,-1.96
8.12,2.52,-4.67,-2.10,-2.24,-2.24
8.12,2.52,-4.69,-2.80,-2.80,-2.66
8.17,2.52,-4.73,-2.87,-2.87,-2.87
8.23,2.52,-4.76,-2.73,-2.66,-2.59
8.23,2.53,-4.74,-1.96,-1.96,-1.82
8.09,2.57,-4.69,-0.77,-0.77,-0.77
8.07,2.53,-4.63,0.42,0.42,0.42
8.13,2.53,-4.62,1.12,1.12,1.12
8.12,2.50,-4.62,1.89,1.96,1.96
8.17,2.48,-4.63,2.24,2.24,2.17
8.22,2.51,-4.68,1.75,1.54,1.33
8.39,2.54,-4.76,0.14,0.14,0.14
8.46,2.58,-4.80,-1.40,-1.61,-1.61
8.40,2.60,-4.77,-2.31,-2.38,-2.38
8.24,2.58,-4.72,-4.20,-4.20,-4.20
8.33,2.49,-4.76,-4.34,-4.34,-4.13
8.24,2.44,-4.73,-3.50,-3.22,-3.01
8.07,2.41,-4.64,-2.31,-2.03,-2.03
8.05,2.45,-4.65,-1.19,-1.19,-1.12
7.97,2.48,-4.61,-0.84,-0.70,-0.70
8.00,2.50,-4.58,-0.35,-0.28,-0.28
8.15,2.55,-4.68,0.00,0.14,0.14
8.26,2.50,-4.70,0.21,0.35,0.35
8.26,2.49,-4.68,0.63,0.63,0.63
8.23,2.46,-4.62,0.70,0.70,0.70
8.20,2.57,-4.63,0.07,0.07,0.07
8.30,2.62,-4.72,-1.05,-1.26,-1.26
8.29,2.61,-4.79,-2.59,-2.59,-2.73
8.35,2.61,-4.80,-3.22,-3.22,-3.22
8.32,2.56,-4.75,-3.29,-3.29,-3.22
8.17,2.52,-4.64,-2.73,-2.73,-2.73
8.09,2.54,-4.60,-2.38,-2.31,-2.31
8.00,2.57,-4.58,-2.45,-2.45,-2.45
8.02,2.58,-4.58,-3.01,-3.15,-3.15
8.07,2.56,-4.62,-4.27,-4.27,-4.34
8.20,2.54,-4.70,-5.25,-5.25,-5.39
8.26,2.49,-4.69,-5.74,-5.81,-5.88
8.17,2.45,-4.63,-5.74,-5.74,-5.60
8.14,2.40,-4.63,-5.11,-5.11,-5.04
8.10,2.43,-4.61,-4.13,-4.13,-4.13
8.26,2.47,-4.68,-2.94,-2.94,-2.94
8.31,2.46,-4.68,-1.54,-1.40,-1.40
8.47,2.44,-4.74,-0.56,0.07,0.07
8.33,2.42,-4.68,1.68,2.03,2.03
8.24,2.44,-4.59,4.34,4.34,4.55
8.18,2.48,-4.62,5.39,5.74,6.09
8.15,2.48,-4.57,6.79,6.79,7.07
8.19,2.53,-4.55,8.40,8.40,8.40
8.25,2.56,-4.61,9.31,9.31,9.31
8.32,2.64,-4.65,9.38,9.24,9.24
8.41,2.68,-4.67,8.89,8.89,8.75
8.36,2.69,-4.67,8.12,7.91,7.91
8.24,2.72,-4.61,7.35,7.28,7.28
8.15,2.75,-4.60,5.81,5.81,5.60
8.13,2.80,-4.61,4.48,4.48,3.92
8.14,2.79,-4.59,2.66,2.66,2.66
8.16,2.79,-4.66,1.54,1.54,1.54
8.10,2.75,-4.68,0.84,0.70,0.70
8.03,2.72,-4.63,0.00,0.00,0.00
8.03,2.73,-4.64,-0.98,-1.05,-1.05
8.05,2.75,-4.67,-2.17,-2.17,-2.17
8.07,2.70,-4.67,-3.29,-3.29,-3.29
8.16,2.69,-4.71,-3.71,-3.64,-3.64
8.14,2.70,-4.69,-3.92,-3.85,-3.85
8.17,2.68,-4.68,-3.85,-3.71,-3.71
8.13,2.65,-4.56,-3.36,-3.22,-3.22
8.14,2.61,-4.51,-2.66,-2.38,-2.31
8.19,2.61,-4.49,-1.54,-1.54,-1.54
8.29,2.69,-4.51,-1.12,-1.12,-1.12
8.31,2.68,-4.59,-0.84,-0.98,-0.98
8.34,2.62,-4.58,0.14,0.14,0.35
8.25,2.52,-4.51,1.54,1.54,1.82
8.25,2.56,-4.54,3.29,3.29,3.29
8.27,2.59,-4.60,3.43,3.50,3.50
8.26,2.64,-4.65,3.22,3.08,3.08
8.22,2.58,-4.69,2.73,2.73,2.80
8.02,2.53,-4.58,2.59,2.59,2.59
7.89,2.51,-4.56,2.52,2.52,2.38
7.93,2.55,-4.55,2.10,2.10,2.10
8.10,2.66,-4.63,1.47,1.47,1.47
8.20,2.67,-4.61,1.68,1.89,1.89
8.24,2.66,-4.50,1.47,1.47,1.40
8.36,2.65,-4.56,-0.49,-0.49,-0.49
8.45,2.62,-4.55,-1.82,-1.82,-1.82
8.44,2.61,-4.59,-3.36,-3.36,-3.36
8.27,2.63,-4.61,-5.81,-5.81,-6.16
8.15,2.58,-4.57,-6.72,-6.72,-6.72
8.15,2.57,-4.63,-6.93,-6.93,-6.93
8.05,2.46,-4.58,-6.23,-6.23,-6.23
8.01,2.45,-4.61,-5.60,-5.60,-5.60
8.00,2.45,-4.60,-4.90,-4.90,-4.90
8.08,2.48,-4.65,-4.06,-3.85,-3.85
8.13,2.54,-4.62,-3.01,-2.38,-2.38
8.10,2.50,-4.57,-0.70,-0.70,-0.70
8.17,2.50,-4.52,1.12,1.12,1.12
8.32,2.55,-4.64,2.03,2.17,2.17
8.46,2.57,-4.68,2.38,2.52,2.52
8.47,2.65,-4.71,2.45,2.59,2.59
8.45,2.72,-4.71,2.52,2.52,2.80
8.23,2.65,-4.64,3.15,3.36,3.57
8.06,2.57,-4.58,4.48,4.48,4.48
8.00,2.59,-4.57,5.81,6.02,6.02
8.04,2.63,-4.64,6.65,6.86,6.86
8.11,2.69,-4.68,6.93,7.00,7.00
8.08,2.70,-4.73,6.58,6.58,6.58
8.06,2.70,-4.69,6.30,6.23,6.02
8.03,2.66,-4.64,5.95,5.88,5.53
8.12,2.70,-4.64,4.90,4.90,4.90
8.11,2.69,-4.64,3.64,3.64,3.64
8.12,2.74,-4.61,1.61,1.61,1.61
8.12,2.75,-4.61,0.14,-0.42,-0.42
8.12,2.76,-4.67,-1.89,-1.89,-2.31
8.29,2.73,-4.75,-3.50,-3.50,-3.50
8.35,2.70,-4.76,-4.06,-4.06,-4.06
8.35,2.67,-4.73,-4.27,-4.27,-4.27
8.24,2.71,-4.68,-4.48,-4.62,-4.62
8.11,2.67,-4.52,-4.83,-4.83,-4.76
8.23,2.64,-4.46,-3.71,-3.71,-3.71
8.40,2.66,-4.56,-3.71,-3.71,-3.71
8.51,2.60,-4.64,-5.04,-5.04,-5.11
8.48,2.57,-4.59,-5.95,-5.95,-6.02
8.35,2.53,-4.57,-6.16,-6.16,-6.02
8.26,2.50,-4.56,-6.16,-6.16,-6.16
8.17,2.47,-4.60,-4.69,-4.62,-4.62
8.04,2.43,-4.60,-3.36,-3.36,-3.36
8.11,2.46,-4.65,-3.15,-3.08,-3.08
8.24,2.39,-4.73,-3.57,-3.50,-3.50
8.13,2.37,-4.73,-2.38,-2.38,-2.38
8.20,2.37,-4.70,-0.91,-0.91,-0.91
8.19,2.37,-4.63,0.91,0.91,0.91
8.14,2.36,-4.54,2.94,2.94,2.94
8.12,2.38,-4.48,4.83,5.11,5.11
8.32,2.40,-4.51,6.16,6.23,6.23
8.49,2.46,-4.61,7.14,7.14,7.35
8.73,2.60,-4.66,7.14,7.14,7.14
8.52,2.63,-4.59,6.58,6.58,6.58
8.34,2.70,-4.51,6.09,6.09,6.09
8.12,2.67,-4.45,6.37,6.51,6.51
7.98,2.63,-4.42,7.77,7.77,7.77
7.90,2.65,-4.41,9.31,9.52,9.52
7.92,2.69,-4.43,10.85,10.92,10.92
8.00,2.77,-4.46,10.78,10.57,10.50
8.04,2.84,-4.49,9.24,9.24,9.17
8.15,2.82,-4.52,6.79,6.79,6.79
8.23,2.84,-4.53,4.83,4.83,4.83
8.30,2.84,-4.54,3.50,3.01,3.01
8.34,2.81,-4.48,2.03,2.03,1.82
8.37,2.79,-4.45,0.21,0.21,0.21
8.39,2.77,-4.44,-0.49,-0.84,-0.84
8.32,2.71,-4.40,-1.61,-1.82,-1.82
8.36,2.67,-4.46,-2.73,-3.08,-3.08
8.39,2.67,-4.51,-3.99,-4.20,-4.20
8.34,2.58,-4.48,-4.69,-4.69,-4.69
8.19,2.52,-4.43,-4.69,-4.69,-4.69
8.23,2.56,-4.44,-4.76,-4.76,-4.76
8.35,2.58,-4.52,-5.25,-5.25,-5.25
8.48,2.56,-4.57,-5.53,-5.53,-5.53
8.26,2.47,-4.51,-4.69,-4.48,-4.48
8.16,2.44,-4.43,-3.64,-3.36,-3.36
8.17,2.44,-4.47,-2.73,-2.52,-2.52
8.18,2.44,-4.51,-1.96,-1.96,-1.82
8.20,2.44,-4.46,-1.05,-1.05,-0.98
8.26,2.44,-4.46,-0.14,-0.14,-0.14
8.29,2.36,-4.44,2.31,2.52,2.52
8.35,2.39,-4.48,3.50,3.64,3.64
8.36,2.43,-4.48,4.41,4.55,4.55
8.34,2.51,-4.47,5.25,5.39,5.39
8.30,2.52,-4.44,5.46,5.46,5.46
8.41,2.54,-4.53,5.32,5.32,5.32
8.40,2.55,-4.54,5.11,5.11,5.04
8.47,2.59,-4.59,4.83,4.90,4.90
8.27,2.57,-4.47,4.62,4.62,4.48
8.16,2.60,-4.45,4.34,4.34,4.34
8.09,2.58,-4.42,4.27,4.27,4.34
8.08,2.57,-4.44,4.34,4.34,4.34
8.10,2.59,-4.44,4.62,4.62,4.69
8.22,2.58,-4.45,5.04,5.04,4.90
8.26,2.61,-4.47,5.04,5.04,4.97
8.38,2.68,-4.55,4.62,4.62,4.62
8.52,2.71,-4.55,4.13,4.13,4.13
8.50,2.71,-4.57,3.85,3.85,3.85
8.34,2.69,-4.46,4.41,4.41,4.41
8.21,2.65,-4.43,4.90,4.90,4.90
8.16,2.68,-4.47,5.32,5.32,5.32
8.20,2.70,-4.47,5.32,5.32,5.32
8.21,2.70,-4.50,5.04,5.04,5.04
8.25,2.70,-4.50,4.27,4.27,4.27
8.15,2.68,-4.40,4.13,4.13,4.13
8.18,2.69,-4.36,3.71,3.71,3.71
8.23,2.74,-4.37,3.50,3.50,3.50
8.38,2.75,-4.45,3.08,3.08,3.08
8.35,2.72,-4.43,3.29,3.29,3.29
8.28,2.71,-4.38,3.64,3.64,3.57
8.29,2.72,-4.42,2.87,2.87,2.87
8.39,2.74,-4.43,2.31,2.17,2.17
8.45,2.72,-4.43,1.82,1.82,1.82
8.47,2.69,-4.41,2.03,2.03,2.10
8.42,2.71,-4.35,2.80,2.80,2.80
8.38,2.77,-4.35,3.08,3.08,3.15
8.37,2.79,-4.36,3.15,3.15,3.15
8.25,2.73,-4.32,2.94,2.94,3.01
8.18,2.68,-4.28,3.01,3.15,3.15
8.30,2.70,-4.39,2.80,2.80,2.80
8.43,2.78,-4.41,2.38,2.03,2.03
8.51,2.82,-4.45,1.19,1.05,1.05
8.40,2.78,-4.30,0.42,0.42,0.28
8.34,2.80,-4.26,0.00,0.00,0.14
8.27,2.78,-4.24,-0.14,-0.14,-0.14
8.37,2.76,-4.35,-0.21,-0.21,-0.28
8.36,2.75,-4.39,-0.28,-0.28,-0.28
8.23,2.69,-4.27,0.14,0.49,0.49
8.30,2.73,-4.32,0.63,0.63,0.56
8.28,2.72,-4.35,0.42,0.42,0.42
8.40,2.75,-4.37,0.28,0.28,0.28
8.26,2.72,-4.32,0.28,0.42,0.42
8.18,2.73,-4.26,0.35,0.35,0.35
8.20,2.75,-4.27,0.14,0.14,0.14
8.23,2.77,-4.28,-0.14,-0.28,-0.28
8.30,2.74,-4.33,-0.56,-0.63,-0.63
8.30,2.72,-4.32,-0.63,-0.63,-0.63
8.26,2.68,-4.28,-0.21,-0.21,-0.21
8.26,2.68,-4.24,0.28,0.21,0.21
8.22,2.75,-4.21,0.28,0.42,0.42
8.42,2.82,-4.29,-0.28,-0.28,-0.28
8.38,2.81,-4.26,-0.63,-0.70,-0.70
8.41,2.76,-4.25,-0.56,-0.56,-0.49
8.37,2.74,-4.22,0.00,0.00,0.00
8.27,2.69,-4.19,0.70,0.70,0.70
8.16,2.67,-4.10,1.47,1.40,1.40
8.18,2.69,-4.13,1.47,1.40,1.40
8.16,2.72,-4.14,0.98,1.05,1.05
8.26,2.69,-4.19,0.91,0.91,0.91
8.25,2.62,-4.18,1.26,1.40,1.47
8.33,2.63,-4.19,1.96,1.96,1.96
8.36,2.61,-4.22,2.17,2.10,2.10
8.36,2.70,-4.23,1.89,1.89,1.89
8.53,2.75,-4.30,1.12,0.98,0.98
8.59,2.74,-4.34,0.14,0.14,0.14
8.52,2.74,-4.28,-0.56,-0.56,-0.56
8.44,2.74,-4.25,-1.05,-1.05,-1.05
8.37,2.73,-4.25,-1.47,-1.47,-1.47
8.37,2.74,-4.19,-1.33,-1.33,-1.19
8.25,2.71,-4.10,-0.56,-0.42,-0.42
8.18,2.72,-4.08,0.21,0.21,0.14
8.23,2.73,-4.11,0.42,0.42,0.42
8.38,2.77,-4.19,0.14,0.14,0.00
8.46,2.77,-4.23,-0.07,-0.07,0.00
8.39,2.74,-4.19,0.42,0.42,0.56
8.35,2.76,-4.17,0.91,0.91,0.98
8.32,2.80,-4.20,0.98,0.98,0.98
8.31,2.80,-4.17,0.77,0.63,0.63
8.35,2.78,-4.18,0.70,0.70,0.70
8.58,2.86,-4.25,0.77,0.77,0.70
8.53,2.82,-4.19,0.70,0.70,0.77
8.38,2.78,-4.16,0.91,0.91,0.98
8.29,2.80,-4.11,1.12,1.12,1.26
8.36,2.81,-4.15,0.70,0.70,0.70
8.42,2.81,-4.15,0.70,0.70,0.70
8.37,2.75,-4.15,0.84,0.84,0.84
8.35,2.76,-4.13,0.98,0.98,0.98
8.40,2.77,-4.14,0.77,0.77,0.77
8.48,2.79,-4.21,0.07,0.07,0.07
8.44,2.78,-4.19,-0.70,-0.70,-0.70
8.39,2.79,-4.20,-1.54,-1.54,-1.54
8.40,2.78,-4.17,-2.10,-2.17,-2.17
8.40,2.76,-4.19,-2.52,-2.59,-2.59
8.45,2.76,-4.21,-2.94,-2.94,-2.94
8.42,2.72,-4.19,-3.15,-3.15,-3.15
8.38,2.71,-4.18,-3.43,-3.43,-3.36
8.40,2.69,-4.20,-3.78,-3.78,-3.78
8.27,2.64,-4.13,-3.92,-3.92,-3.92
8.28,2.64,-4.16,-3.99,-3.99,-3.85
8.37,2.62,-4.21,-3.78,-3.78,-3.78
8.51,2.65,-4.25,-3.36,-3.36,-3.36
8.49,2.67,-4.24,-3.08,-2.80,-2.80
8.50,2.65,-4.22,-2.38,-2.38,-2.38
8.38,2.60,-4.10,-1.47,-1.26,-1.26
8.37,2.63,-4.08,-0.91,-0.63,-0.63
8.39,2.66,-4.11,-0.28,-0.21,-0.28
8.53,2.70,-4.18,-0.42,-0.42,-0.42
8.63,2.74,-4.25,-0.63,-0.63,-0.56
8.55,2.66,-4.19,-0.35,-0.14,-0.21
8.40,2.67,-4.13,0.63,0.63,0.63
8.26,2.68,-4.06,1.47,1.54,1.54
8.23,2.68,-4.03,2.17,2.17,2.17
8.30,2.69,-4.04,2.59,2.59,2.59
8.44,2.71,-4.08,2.80,2.80,2.80
8.48,2.76,-4.09,2.45,2.24,2.24
8.48,2.74,-4.06,1.96,1.82,1.82
8.50,2.74,-4.09,1.54,1.54,1.40
8.49,2.74,-4.09,1.26,1.26,1.05
8.48,2.77,-4.07,0.70,0.56,0.56
8.41,2.74,-4.02,0.21,0.21,-0.07
8.38,2.69,-4.00,-1.12,-1.12,-1.19
8.38,2.68,-3.99,-1.33,-1.33,-1.26
8.42,2.67,-4.00,-1.33,-1.33,-1.40
8.52,2.71,-4.02,-1.33,-1.33,-1.19
8.51,2.67,-4.00,-1.26,-1.26,-1.26
8.44,2.68,-3.99,-1.19,-1.19,-1.19
8.40,2.66,-3.97,-1.05,-1.05,-1.05
8.42,2.66,-3.98,-0.70,-0.70,-0.70
8.51,2.68,-4.02,-0.42,-0.21,-0.21
8.57,2.66,-4.05,0.21,0.21,0.21
8.54,2.67,-4.02,0.91,0.91,0.91
8.51,2.70,-4.02,0.98,0.91,0.91
8.58,2.74,-4.06,0.84,0.77,0.77
8.49,2.70,-4.00,0.91,0.91,0.91
8.52,2.66,-4.01,1.33,1.33,1.33
8.41,2.61,-3.96,1.68,1.68,1.68
8.42,2.66,-4.00,1.61,1.47,1.47
8.44,2.71,-4.01,0.91,0.91,0.91
8.57,2.76,-4.07,0.14,0.14,0.14
8.53,2.70,-4.02,0.07,0.21,0.21
8.52,2.65,-3.96,0.63,0.70,0.70
8.47,2.65,-3.97,1.05,1.05,1.05
8.55,2.72,-4.01,0.98,1.05,1.05
8.61,2.75,-4.00,0.84,0.56,0.56
8.55,2.77,-3.98,0.14,0.07,0.07
8.50,2.73,-3.98,-0.70,-0.77,-0.77
8.48,2.70,-4.01,-1.33,-1.33,-1.47
8.52,2.69,-3.99,-1.47,-1.47,-1.47
8.47,2.68,-3.96,-1.05,-1.05,-1.05
8.41,2.68,-3.93,-0.56,-0.56,-0.56
8.39,2.69,-3.91,-0.49,-0.49,-0.49
8.40,2.70,-3.93,-0.49,-0.56,-0.56
8.47,2.68,-3.96,-0.35,-0.35,-0.35
8.55,2.65,-3.97,0.21,0.21,0.07
8.57,2.64,-3.97,0.49,0.49,0.63
8.56,2.64,-3.95,0.42,0.42,0.28
8.58,2.67,-3.97,-0.07,-0.07,-0.07
8.60,2.64,-3.95,-0.77,-0.77,-0.77
8.55,2.65,-3.94,-0.98,-0.98,-1.05
8.60,2.64,-3.98,-1.40,-1.40,-1.40
8.64,2.59,-4.00,-1.61,-1.61,-1.61
8.60,2.59,-3.98,-1.33,-1.19,-1.19
8.56,2.57,-3.95,-0.70,-0.70,-0.56
8.57,2.64,-4.03,-0.42,-0.42,-0.42
8.60,2.66,-4.05,-0.84,-0.84,-0.84
8.49,2.64,-4.02,-0.84,-0.70,-0.70
8.42,2.59,-3.98,-0.35,-0.35,-0.07
8.41,2.60,-3.95,0.28,0.28,0.42
8.45,2.61,-3.96,0.77,0.77,0.91
8.57,2.60,-3.96,0.77,0.77,0.84
8.56,2.63,-3.97,0.84,0.84,0.84
8.54,2.66,-4.01,0.49,0.49,0.49
8.58,2.70,-4.03,-0.35,-0.35,-0.35
8.60,2.69,-4.04,-0.49,-0.49,-0.49
8.56,2.65,-3.99,-0.35,-0.14,-0.42
8.49,2.62,-3.96,0.07,0.07,0.14
8.45,2.64,-3.94,0.42,0.42,0.42
8.48,2.68,-4.00,0.21,0.21,0.28
8.52,2.73,-4.04,0.00,0.00,0.00
8.44,2.71,-4.02,-0.21,-0.21,-0.21
8.38,2.68,-3.97,-0.70,-0.70,-0.70
8.42,2.67,-3.99,-1.12,-0.98,-0.98
8.50,2.69,-3.95,-1.26,-1.33,-1.33
8.55,2.73,-4.02,-1.40,-1.40,-1.33
8.58,2.70,-3.99,-1.26,-1.26,-1.26
8.55,2.68,-3.97,-1.05,-1.05,-0.98
8.46,2.65,-3.95,-0.84,-0.84,-0.84
8.42,2.65,-3.97,-0.91,-0.91,-0.91
8.45,2.64,-4.00,-0.49,-0.49,-0.49
8.45,2.63,-4.00,-0.21,-0.07,-0.07
8.43,2.63,-4.05,0.28,0.28,0.21
8.61,2.66,-4.10,-0.42,-0.42,-0.42
8.61,2.68,-4.04,-1.33,-1.33,-1.33
8.64,2.74,-3.93,-2.03,-2.03,-2.03
9.08,3.02,-3.83,-2.80,-2.80,-2.80
9.81,3.67,-3.53,-5.60,-5.60,-5.60
10.73,4.16,-3.34,-7.91,-8.33,-8.33
11.26,4.17,-2.86,-10.22,-10.22,-10.57
12.22,4.48,-1.89,-10.43,-10.43,-10.43
12.64,4.90,-1.29,-10.92,-10.92,-10.92
12.89,5.14,-1.37,-14.56,-16.59,-16.59
12.96,5.47,-1.67,-26.46,-26.46,-28.00
12.40,5.47,-1.31,-39.34,-39.34,-40.95
9.93,5.19,-0.06,-72.66,-72.66,-74.06
9.92,5.12,0.38,-84.28,-84.28,-84.28
10.06,5.16,1.13,-93.45,-94.15,-94.15
10.16,5.24,1.57,-97.65,-98.35,-98.35
9.83,4.99,2.06,-103.11,-103.11,-103.67
9.75,5.11,2.23,-107.66,-107.66,-107.66
9.30,5.08,2.71,-114.03,-114.03,-114.03
8.57,4.71,2.82,-116.48,-116.48,-116.48
7.17,3.91,3.01,-114.59,-113.05,-113.05
6.14,3.34,3.67,-106.19,-103.60,-103.60
5.30,2.69,4.29,-93.45,-93.45,-93.45
5.47,2.55,4.58,-78.05,-78.05,-78.05
5.72,2.54,4.80,-66.29,-66.29,-66.29
5.86,2.49,4.91,-57.40,-57.40,-56.00
6.01,2.61,5.37,-43.89,-43.89,-42.70
5.91,2.77,5.60,-37.45,-37.45,-36.47
5.97,3.01,5.84,-29.47,-29.47,-29.47
5.25,2.95,6.12,-17.15,-17.15,-17.15
4.47,2.88,6.33,-11.76,-11.76,-11.76
4.03,2.97,6.71,-5.25,-5.25,-5.25
4.05,3.21,6.85,-2.66,-2.24,-2.24
4.34,3.42,7.03,-1.89,-2.24,-2.24
4.39,3.62,7.12,-3.15,-3.50,-3.50
4.02,3.62,7.32,-4.48,-4.48,-4.48
3.46,3.49,7.56,-5.67,-5.67,-5.67
3.10,3.44,7.67,-7.00,-7.00,-7.00
2.73,3.33,7.69,-8.05,-8.05,-8.05
2.65,3.24,7.74,-9.10,-9.03,-9.03
2.67,3.33,7.75,-10.99,-11.34,-11.34
2.65,3.33,7.75,-13.72,-14.00,-14.00
2.58,3.12,7.50,-16.10,-16.10,-16.24
2.20,2.69,7.12,-15.82,-15.82,-15.82
1.69,2.31,6.70,-12.74,-12.74,-12.74
1.47,2.20,6.38,-6.58,-6.58,-6.58
1.61,2.46,6.20,-4.48,-4.48,-4.48
2.29,2.64,6.12,-3.64,-3.22,-3.22
3.02,2.52,6.11,-1.82,-0.35,-0.35
3.57,2.58,6.30,3.78,3.78,3.78
4.00,2.82,6.59,5.88,6.30,6.30
4.04,2.86,6.61,7.14,7.21,7.56
5.00,3.04,6.79,8.82,8.89,8.89
5.53,2.92,6.68,10.99,10.99,10.99
5.70,2.82,6.57,13.44,14.21,14.21
6.03,2.77,6.47,16.17,16.38,16.38
6.02,2.74,6.02,18.69,18.69,18.69
6.40,2.92,5.72,17.57,17.57,17.57
6.74,3.07,5.75,15.19,15.19,15.19
6.72,2.90,5.76,14.42,14.42,14.42
7.19,3.14,5.70,13.44,12.67,12.67
7.40,3.20,5.57,10.29,9.45,9.45
7.94,3.24,5.58,7.70,7.70,7.28
7.99,3.10,5.36,7.14,7.14,7.00
8.26,3.32,5.26,6.09,6.09,6.09
8.44,3.45,4.93,3.36,3.01,3.01
9.06,3.53,4.82,0.77,0.77,0.35
9.49,3.46,4.00,-3.99,-4.62,-4.62
9.78,3.37,3.68,-7.35,-7.35,-7.70
9.71,3.15,3.19,-9.10,-9.10,-9.10
9.12,2.64,2.94,-6.51,-6.51,-6.51
8.59,2.62,2.68,-3.08,-3.08,-3.08
9.51,2.90,2.27,-3.15,-3.15,-3.15
9.82,2.81,1.91,-4.55,-4.55,-4.55
10.00,2.73,1.62,-3.99,-3.22,-3.22
9.58,2.42,1.28,-0.21,-0.21,0.98
9.05,2.21,0.92,4.90,4.90,4.90
8.71,2.14,0.40,11.13,11.13,11.13
9.07,2.32,-0.15,14.07,14.07,14.07
9.44,2.19,-0.57,16.31,16.31,16.31
9.67,2.03,-0.99,19.74,19.74,19.74
9.79,1.94,-1.54,25.62,26.25,26.25
10.18,1.99,-1.90,28.56,29.54,29.54
10.36,1.87,-2.40,30.31,30.45,30.45
10.63,1.71,-2.81,30.24,30.24,30.24
10.98,1.56,-3.18,30.03,29.96,30.10
11.24,1.34,-3.46,30.38,30.38,30.59
11.46,1.12,-3.57,31.99,31.99,32.13
11.39,0.96,-3.61,33.88,33.88,34.16
11.18,0.90,-3.55,35.49,35.49,35.49
11.02,0.95,-3.57,36.12,36.12,36.12
10.69,1.02,-3.52,35.70,35.49,35.49
10.58,1.17,-3.57,33.53,33.53,33.32
10.35,1.34,-3.52,31.85,31.29,30.87
10.14,1.43,-3.49,28.98,28.98,28.63
9.79,1.48,-3.28,26.04,26.04,26.04
9.40,1.51,-3.14,24.01,24.01,23.80
9.20,1.58,-3.10,20.72,20.72,20.72
9.24,1.60,-3.16,18.06,18.06,18.06
8.76,1.49,-2.93,16.31,16.10,16.10
8.82,1.48,-2.94,14.77,14.77,14.77
9.00,1.51,-3.11,12.60,12.32,12.32
9.15,1.52,-3.21,9.59,9.59,8.19
9.16,1.52,-3.22,5.88,5.88,5.39
9.24,1.52,-3.29,0.49,0.49,0.00
9.55,1.54,-3.54,-2.94,-2.94,-4.76
9.67,1.46,-3.64,-7.56,-7.56,-7.56
9.67,1.35,-3.62,-9.80,-9.80,-9.80
9.54,1.33,-3.65,-10.78,-10.78,-10.78
9.06,1.21,-3.57,-13.79,-13.79,-13.65
9.07,1.20,-3.60,-13.09,-12.60,-12.32
8.93,1.17,-3.57,-10.29,-10.29,-10.29
8.98,1.19,-3.56,-8.05,-7.14,-7.14
8.65,1.14,-3.44,-5.39,-4.41,-4.41
8.60,1.17,-3.35,-2.87,-2.59,-2.45
8.69,1.23,-3.39,-1.26,-1.19,-1.19
8.74,1.25,-3.40,0.28,0.28,0.42
8.76,1.16,-3.36,1.68,2.17,2.52
8.94,1.15,-3.42,4.34,4.69,4.69
9.01,1.16,-3.47,7.00,7.00,7.00
9.04,1.16,-3.49,9.73,9.73,9.73
8.95,1.20,-3.42,11.27,11.76,11.76
8.99,1.17,-3.46,13.09,13.09,13.58
9.08,1.22,-3.51,15.19,15.54,15.54
8.94,1.26,-3.43,18.06,18.34,18.34
9.07,1.27,-3.52,19.46,19.46,19.53
9.03,1.35,-3.51,20.02,20.16,20.16
8.97,1.42,-3.43,20.51,20.51,20.58
9.01,1.41,-3.46,20.93,21.14,21.14
9.01,1.47,-3.43,21.49,21.70,21.70
8.81,1.46,-3.30,22.54,22.54,22.68
8.71,1.52,-3.24,22.89,22.89,22.89
8.94,1.58,-3.35,21.91,21.91,21.77
8.96,1.58,-3.32,20.09,20.09,20.09
8.92,1.61,-3.26,19.39,19.04,19.04
8.99,1.64,-3.32,18.06,17.71,17.71
9.05,1.65,-3.37,16.52,16.52,16.03
9.05,1.67,-3.32,14.35,14.35,14.35
9.11,1.69,-3.29,12.18,11.83,11.83
9.04,1.71,-3.28,10.15,9.94,9.94
9.18,1.74,-3.30,8.82,8.19,8.19
9.16,1.67,-3.25,7.14,7.14,7.21
9.16,1.70,-3.28,6.44,6.44,6.44
9.21,1.68,-3.27,5.74,5.74,5.74
9.21,1.69,-3.26,5.11,5.11,5.11
9.18,1.66,-3.22,4.20,4.20,4.20
9.18,1.69,-3.18,3.08,3.08,3.08
9.15,1.67,-3.16,2.52,2.52,2.52
9.11,1.67,-3.12,1.96,1.82,1.82
9.09,1.63,-3.13,1.05,1.05,0.77
9.09,1.63,-3.18,-0.07,-0.07,-0.07
9.18,1.62,-3.19,-0.98,-0.98,-0.98
9.10,1.61,-3.19,-1.61,-1.89,-1.89
9.13,1.61,-3.20,-2.80,-2.80,-3.29
9.16,1.61,-3.27,-4.76,-4.76,-4.76
9.18,1.63,-3.25,-6.93,-6.93,-6.93
9.12,1.60,-3.23,-8.40,-8.40,-8.40
9.11,1.60,-3.21,-9.80,-9.80,-9.80
9.17,1.64,-3.28,-10.78,-10.78,-10.78
9.24,1.66,-3.34,-12.11,-12.11,-12.11
9.28,1.65,-3.33,-13.37,-13.44,-13.44
9.10,1.58,-3.26,-13.58,-13.65,-13.65
9.00,1.57,-3.25,-13.86,-13.86,-13.79
8.87,1.60,-3.22,-14.91,-14.91,-14.91
8.92,1.62,-3.23,-15.12,-15.12,-15.12
9.03,1.61,-3.27,-14.91,-14.91,-14.91
8.95,1.61,-3.21,-14.63,-14.63,-14.49
9.00,1.64,-3.23,-14.49,-14.49,-14.49
9.09,1.67,-3.30,-15.05,-15.05,-15.05
9.13,1.66,-3.28,-14.84,-14.84,-14.84
9.10,1.67,-3.26,-14.21,-14.21,-14.21
8.96,1.69,-3.26,-13.86,-13.72,-13.72
8.83,1.58,-3.17,-12.60,-12.60,-12.60
8.72,1.58,-3.09,-10.99,-10.99,-10.99
8.82,1.64,-3.14,-9.87,-9.87,-9.87
8.94,1.75,-3.09,-9.80,-9.80,-9.80
9.46,1.87,-2.97,-10.78,-10.78,-10.99
10.15,1.96,-2.69,-12.32,-12.32,-12.32
10.74,2.25,-2.45,-12.81,-12.95,-12.95
10.78,2.36,-2.20,-13.51,-13.51,-13.79
10.60,2.29,-1.93,-14.56,-14.56,-14.84
10.68,2.26,-1.52,-15.54,-15.54,-15.54
11.04,2.43,-0.89,-14.84,-14.84,-14.84
11.60,2.63,-0.63,-13.93,-13.79,-13.79
11.83,2.74,-0.39,-13.37,-13.37,-13.37
11.70,2.71,0.01,-13.16,-13.16,-13.09
11.21,2.66,0.34,-12.25,-11.90,-11.90
10.92,2.52,0.75,-10.50,-10.50,-10.50
10.64,2.45,1.18,-9.94,-10.01,-10.01
10.83,2.60,1.30,-10.71,-11.34,-11.34
11.29,2.56,1.29,-12.11,-12.11,-12.18
11.18,2.45,1.66,-11.41,-11.34,-10.85
11.61,2.69,1.99,-10.29,-10.01,-10.29
12.12,3.01,2.04,-11.34,-12.74,-12.74
12.69,3.33,2.33,-16.03,-18.41,-18.41
12.97,3.40,2.74,-22.89,-23.66,-24.36
13.24,3.36,3.13,-29.40,-30.66,-31.22
14.69,3.44,3.42,-33.11,-33.11,-33.60
13.69,3.58,3.80,-34.09,-34.09,-34.23
14.12,3.74,4.25,-35.42,-36.19,-36.47
14.89,3.81,4.64,-39.62,-39.62,-39.62
14.99,3.78,4.81,-42.00,-42.07,-42.07
14.91,3.85,4.88,-42.91,-42.98,-42.98
14.63,3.67,4.87,-44.52,-44.87,-44.87
13.97,3.54,5.12,-45.99,-45.99,-45.92
13.13,3.28,5.38,-45.85,-45.71,-45.71
12.47,2.87,5.69,-43.33,-43.33,-42.91
11.56,2.72,6.17,-38.99,-38.99,-38.99
10.68,2.93,7.69,-35.49,-35.49,-35.49
10.37,2.96,7.88,-36.75,-36.75,-36.75
9.37,2.60,7.93,-36.47,-36.47,-36.47
9.28,2.07,7.39,-36.05,-36.05,-36.05
8.35,1.70,7.18,-30.66,-30.66,-30.66
7.58,1.36,6.71,-27.72,-27.37,-27.37
6.63,0.98,6.19,-23.38,-23.38,-20.72
5.30,0.63,6.03,-15.05,-15.05,-13.72
3.92,0.49,6.06,-2.87,-2.87,-2.87
2.68,0.48,5.99,3.64,3.64,3.64
1.30,0.35,5.51,9.80,9.80,9.80
0.36,0.26,5.19,15.75,15.75,15.75
-0.13,0.30,4.58,22.05,22.05,22.05
-0.86,0.28,4.09,27.16,27.16,27.16
-1.38,0.34,3.40,33.39,33.39,33.39
-1.84,0.40,2.68,37.24,37.94,37.94
-2.23,0.66,1.45,41.51,41.51,41.72
-2.70,0.74,0.81,42.07,41.86,41.86
-2.87,0.68,0.01,40.25,40.25,40.25
-2.71,0.67,-0.44,38.29,38.29,38.01
-2.74,0.60,-1.28,34.65,34.65,34.65
-2.90,0.27,-2.04,31.01,31.01,31.01
-3.00,-0.04,-2.52,27.79,26.53,26.53
-3.26,-0.22,-3.35,22.33,21.84,21.84
-3.79,-0.44,-4.25,17.78,17.78,17.29
-4.59,-0.78,-4.62,15.75,15.47,15.47
-4.91,-1.04,-5.60,16.17,16.45,16.45
-5.32,-1.34,-7.05,20.44,20.44,21.14
-5.37,-1.49,-9.22,28.98,28.98,29.75
-5.13,-1.45,-10.09,31.92,31.92,32.34
-5.36,-0.69,-11.71,33.81,33.53,33.53
-3.65,-0.27,-12.06,-10.50,-10.50,-10.50
-1.98,-0.46,-11.83,-35.70,-35.70,-35.70
-1.63,-0.21,-11.32,-47.88,-47.88,-47.88
-3.15,-0.55,-9.38,-65.24,-65.24,-65.45
-3.00,-1.01,-8.68,-62.30,-61.46,-61.46
-2.95,-0.89,-8.24,-52.85,-52.85,-51.94
-2.88,-0.73,-8.07,-46.90,-46.90,-46.06
-2.46,-0.78,-8.45,-35.91,-35.91,-35.91
-2.26,-0.95,-8.97,-26.11,-26.11,-26.11
-2.13,-0.98,-9.83,-9.73,-9.73,-9.73
-2.60,-0.67,-10.38,1.05,1.05,1.05
-2.99,-0.21,-10.60,8.26,8.26,8.26
-3.41,-0.17,-10.54,15.75,16.73,16.73
-3.50,-0.22,-10.38,22.33,25.97,25.97
-3.87,-0.46,-10.41,31.78,35.42,35.42
-4.33,-0.87,-10.34,43.61,43.61,43.61
-3.88,-0.87,-10.34,52.99,53.76,53.76
-3.28,-0.75,-10.40,56.21,57.54,57.54
-2.04,-0.35,-9.34,61.25,61.25,60.69
-2.45,-0.05,-9.36,55.23,54.18,54.18
-3.00,-0.27,-9.35,48.51,47.81,47.81
-2.67,-0.16,-9.45,41.93,41.93,41.16
-2.14,0.11,-9.60,35.42,32.69,31.22
-2.04,0.15,-9.56,23.80,23.80,19.81
-1.87,-0.14,-9.33,12.39,12.39,12.39
-2.13,-0.72,-9.25,7.49,6.79,6.79
-2.55,-1.12,-9.23,5.53,5.53,5.32
-2.89,-1.28,-9.17,4.34,4.34,4.34
-2.91,-1.17,-9.09,1.82,1.82,1.82
-2.58,-0.91,-9.14,-1.47,-2.17,-2.17
-2.17,-0.89,-9.05,-7.28,-7.28,-7.91
-1.55,-1.27,-9.03,-13.30,-13.30,-13.58
-1.37,-1.64,-9.05,-14.63,-14.63,-14.63
-1.92,-2.16,-9.06,-12.39,-11.90,-11.90
-2.58,-2.41,-9.12,-7.07,-7.07,-6.37
-3.00,-2.35,-9.21,-3.01,-1.54,-1.54
-2.78,-2.10,-9.32,3.22,3.22,3.22
-2.26,-1.92,-9.49,6.30,6.30,6.30
-1.70,-1.91,-9.53,8.96,8.96,8.96
-1.70,-1.87,-9.58,11.90,12.18,12.18
-1.90,-1.90,-9.64,14.42,14.70,15.47
-2.12,-1.92,-9.66,17.29,17.78,18.69
-2.45,-2.05,-9.58,22.61,22.61,23.17
-2.58,-2.17,-9.59,28.84,28.84,28.84
-2.71,-2.36,-9.66,32.83,33.95,33.95
-2.46,-2.22,-10.00,36.19,36.19,36.26
-2.25,-1.92,-10.30,28.49,28.49,28.49
-2.29,-1.76,-10.10,19.04,19.04,19.04
-2.57,-1.52,-9.90,11.55,10.29,10.29
-2.83,-1.23,-9.52,-0.42,-0.42,-4.55
-2.76,-1.27,-9.44,-10.71,-10.71,-11.76
-2.39,-2.37,-9.10,-13.79,-13.79,-13.65
-2.16,-2.53,-8.98,-11.27,-11.27,-11.27
-2.08,-2.48,-8.94,-7.21,-6.65,-6.65
-1.91,-2.14,-9.37,-5.39,-5.39,-5.39
-2.03,-1.90,-9.77,-6.51,-6.93,-6.93
-2.39,-2.08,-9.93,-8.82,-8.82,-8.82
-3.10,-2.21,-9.95,-7.77,-7.77,-7.77
-3.58,-2.31,-10.54,-6.30,-6.23,-6.23
-3.64,-2.43,-12.17,-10.36,-10.99,-10.99
-4.00,-2.43,-13.24,-18.34,-19.60,-19.60
-4.54,-2.71,-13.17,-25.48,-26.18,-26.18
-5.19,-3.27,-12.49,-25.27,-25.27,-25.27
-5.88,-3.80,-12.24,-17.64,-17.64,-17.64
-5.79,-3.57,-12.43,-8.12,-7.14,-7.14
-5.46,-3.36,-12.14,-1.05,-1.05,-0.07
-5.19,-2.77,-11.63,6.16,6.16,6.79
-4.99,-2.21,-11.01,9.52,9.52,9.52
-4.55,-1.53,-10.57,6.30,6.30,6.30
-4.24,-1.20,-10.19,3.36,3.36,3.36
-4.27,-0.66,-9.82,-1.33,-1.33,-1.33
-4.92,-0.07,-9.69,-8.47,-9.80,-9.80
-6.22,-0.25,-9.29,-18.34,-18.34,-18.97
-7.42,-1.00,-8.48,-17.99,-17.99,-17.22
-8.09,-1.17,-7.98,-12.46,-12.46,-12.46
-7.94,-1.20,-7.45,-7.70,-7.70,-7.70
-7.78,-1.35,-7.11,-5.11,-5.25,-5.25
-6.80,-0.93,-6.75,-8.54,-9.66,-9.66
-5.94,-0.60,-5.86,-21.00,-21.00,-21.00
-6.03,-0.53,-4.94,-38.29,-38.29,-38.29
-6.88,-0.85,-4.26,-47.11,-47.11,-48.30
-7.12,-1.23,-3.46,-54.04,-54.39,-54.39
-6.72,-1.60,-2.44,-52.22,-51.66,-51.66
-6.84,-1.60,-1.45,-46.76,-46.76,-46.41
-6.96,-1.30,-0.96,-43.89,-43.89,-43.61
-7.06,-1.14,-0.51,-41.51,-41.51,-41.16
-7.00,-1.14,-0.06,-37.59,-36.89,-36.89
-6.44,-0.97,0.58,-30.17,-30.17,-29.26
-6.66,-0.90,1.45,-23.03,-23.03,-21.91
-7.24,-0.95,2.00,-16.17,-16.17,-14.91
-7.09,-0.86,2.87,-1.89,-1.89,-0.42
-6.54,-0.65,3.41,7.56,7.56,7.56
-5.88,-0.24,4.21,17.22,18.13,18.13
-4.92,0.32,4.84,21.70,22.82,22.82
-4.13,0.56,5.65,23.24,23.17,23.10
-3.79,0.71,6.15,22.61,22.33,22.33
-3.68,0.63,6.86,22.96,22.96,22.96
-2.91,0.16,7.52,26.67,26.67,26.67
-1.95,-0.17,8.04,30.24,30.24,30.24
-1.36,-0.18,8.46,33.88,33.88,33.88
-0.51,-0.20,8.79,36.96,36.96,36.96
-1.58,-0.83,9.68,47.53,49.28,49.28
-2.31,-0.73,9.87,57.68,60.48,61.53
-2.35,0.17,10.01,65.31,65.31,65.31
-1.22,1.07,10.09,62.58,61.88,60.55
-1.09,1.44,10.41,56.63,55.79,53.83
-0.48,1.67,10.87,48.72,47.60,45.29
-0.12,2.28,11.19,36.26,36.26,34.65
-0.09,2.24,11.56,19.32,19.32,19.32
-0.54,1.75,11.84,10.50,10.50,10.50
-0.69,1.58,11.94,4.48,2.17,2.17
-0.45,1.42,12.09,-1.61,-3.08,-3.71
-0.14,1.18,11.88,-6.79,-7.42,-7.84
0.08,0.67,11.76,-11.13,-11.13,-11.27
-0.31,0.46,11.93,-11.41,-11.41,-11.06
-0.12,0.46,11.73,-9.17,-9.17,-8.82
-0.28,0.25,11.87,-6.65,-5.88,-5.32
-0.18,0.24,11.70,-3.08,-2.31,-1.82
0.30,0.45,11.46,-0.21,-0.21,-0.07
0.38,0.94,11.33,-1.12,-1.12,-1.61
0.28,1.21,11.11,-7.63,-7.63,-8.33
0.01,1.05,11.07,-11.48,-11.83,-11.83
0.24,0.91,10.71,-13.65,-13.93,-13.79
0.44,0.92,10.20,-13.65,-13.65,-13.44
0.15,0.89,10.04,-13.58,-13.58,-13.58
0.06,1.25,8.83,-19.32,-19.32,-19.32
-0.71,0.99,8.07,-21.42,-21.42,-21.42
-1.71,0.28,7.91,-19.88,-18.41,-18.41
-2.13,-0.07,7.56,-12.60,-10.57,-10.57
-2.77,-0.22,7.14,-5.81,-5.81,-4.55
-3.28,-0.20,6.59,-2.03,-2.03,-2.03
-3.80,0.03,5.74,0.35,0.35,0.35
-4.47,0.21,4.97,-0.63,-0.63,-0.63
-5.73,0.07,4.35,-3.85,-3.85,-3.85
-6.80,-0.09,3.46,-6.23,-6.23,-6.30
-7.55,-0.26,2.35,-7.70,-7.70,-7.70
-8.28,-0.74,1.81,-8.33,-8.47,-8.47
-8.98,-1.00,0.94,-8.12,-8.12,-8.12
-10.04,-0.71,0.06,-9.87,-9.87,-10.92
-10.59,-0.43,-0.54,-15.68,-15.68,-17.64
-10.72,-0.31,-1.54,-23.31,-23.31,-25.06
-10.66,-0.78,-2.21,-29.89,-29.89,-30.38
-10.74,-1.18,-2.63,-33.95,-33.95,-33.95
-11.27,-1.08,-2.78,-35.84,-35.84,-35.84
-11.18,-1.05,-3.50,-39.48,-39.48,-39.48
-10.30,-1.53,-3.90,-40.88,-40.88,-40.60
-9.82,-1.58,-4.14,-37.59,-37.59,-36.12
-9.94,-1.58,-4.32,-30.31,-30.31,-29.54
-10.05,-1.45,-4.68,-21.77,-21.77,-20.93
-9.04,-1.05,-5.13,-18.97,-18.97,-18.55
-7.93,-0.90,-5.48,-17.85,-17.85,-17.85
-7.58,-1.02,-5.74,-16.24,-16.24,-16.24
-7.33,-1.81,-6.65,-7.00,-7.00,-7.00
-6.97,-1.71,-7.23,-2.24,-0.70,-0.70
-6.58,-1.48,-7.80,3.92,3.92,5.32
-5.89,-1.63,-8.35,9.94,9.94,9.94
-5.17,-1.68,-8.75,14.56,16.87,16.87
-5.03,-1.21,-9.35,21.00,21.84,23.24
-6.35,1.13,-10.66,26.46,26.46,26.53
-6.94,2.09,-10.45,26.32,26.32,26.32
-6.26,1.16,-9.48,25.48,24.78,24.78
-6.40,0.63,-8.93,22.68,21.98,21.98
-6.41,0.60,-8.86,19.39,19.39,19.39
-5.69,1.25,-8.79,8.96,8.96,6.86
-4.92,1.65,-8.71,-1.40,-2.73,-2.73
-3.51,0.99,-8.26,-21.77,-22.54,-22.54
-3.08,0.48,-8.45,-25.27,-26.18,-26.18
-2.70,0.06,-8.73,-26.53,-26.60,-26.32
-2.69,-1.25,-8.87,-18.41,-17.29,-17.29
-2.94,-2.26,-10.08,-1.47,-1.47,-1.47
-3.43,-2.22,-10.86,11.48,12.67,12.67
-4.47,-2.06,-11.01,25.62,25.62,25.62
-4.53,-1.65,-10.93,32.06,32.34,32.34
-4.53,-1.24,-10.98,31.08,30.31,30.31
-4.11,-0.69,-11.16,24.64,24.64,24.64
-3.91,-0.56,-10.78,17.85,17.15,17.15
-4.08,-0.74,-10.08,13.93,13.79,13.79
-4.24,-1.05,-9.40,13.93,13.93,13.93
-4.03,-1.33,-8.69,17.64,18.27,18.27
-3.56,-1.25,-8.34,22.47,23.03,23.03
-3.17,-0.91,-8.14,25.41,25.41,25.41
-2.95,-0.34,-7.93,23.87,23.38,23.38
-2.98,-0.00,-8.00,19.60,19.60,18.76
-3.21,0.01,-8.59,11.62,10.71,10.71
-3.48,0.13,-9.85,0.07,0.07,-1.12
-3.91,0.04,-10.56,-7.84,-7.84,-9.17
-4.44,-0.16,-11.13,-17.57,-35.49,-18.62
-5.38,-0.98,-11.23,-23.24,-23.24,-23.38
-5.85,-2.12,-12.22,-21.00,-21.00,-21.00
-6.16,-3.51,-13.74,-13.30,-13.30,-13.30
-6.70,-4.43,-14.02,-2.59,-0.63,-0.63
-7.27,-4.39,-12.77,18.13,18.13,18.13
-7.51,-4.06,-11.51,31.71,31.71,33.04
-7.34,-3.59,-10.85,37.52,38.71,38.92
-6.50,-2.92,-10.10,38.57,38.57,36.54
-5.28,-2.12,-9.69,29.40,29.40,27.44
-4.20,-1.74,-9.36,4.62,4.62,1.54
-3.76,-1.53,-8.80,-20.09,-20.09,-23.31
-4.27,-1.41,-8.42,-38.36,-43.96,-46.55
-5.35,-1.27,-8.32,-59.22,-63.77,-66.15
-6.55,-1.54,-8.27,-75.46,-75.46,-79.24
-7.75,-2.19,-7.53,-80.50,-80.50,-80.50
-8.51,-2.71,-6.87,-67.55,-67.55,-67.55
-9.49,-2.61,-6.05,-54.18,-52.22,-52.22
-9.84,-2.15,-5.66,-39.13,-39.13,-39.13
-9.56,-1.86,-5.48,-31.36,-28.91,-28.91
-8.89,-1.30,-4.55,-21.28,-21.28,-20.23
-8.16,-0.90,-3.96,-13.79,-13.79,-13.79
-7.71,-0.15,-3.49,-12.11,-12.60,-12.60
-6.94,0.67,-2.24,-16.10,-16.10,-16.73
-6.77,0.92,-0.95,-21.00,-21.00,-21.00
-7.38,0.49,-0.18,-20.16,-19.18,-19.18
-7.94,0.00,0.64,-14.56,-14.56,-13.79
-7.96,-0.01,1.29,-7.21,-7.21,-7.21
-7.85,0.03,1.66,-4.41,-3.78,-3.78
-7.49,0.46,2.18,-3.57,-4.27,-4.27
-6.74,1.21,2.52,-9.17,-9.17,-11.55
-6.28,1.14,3.04,-18.69,-18.69,-20.65
-6.16,0.70,3.53,-24.08,-24.08,-25.06
-6.28,0.62,4.06,-27.16,-27.16,-27.16
-5.40,-0.28,5.32,-25.83,-25.34,-25.34
-5.25,-0.52,5.62,-20.44,-20.44,-20.23
-4.99,-0.35,5.81,-19.46,-19.39,-19.46
-5.03,-0.65,6.23,-17.43,-16.24,-15.33
-4.53,-0.66,6.96,-9.94,-9.94,-8.82
-4.29,-0.62,7.61,-0.84,-0.84,-0.84
-4.79,-0.42,7.61,3.78,4.27,4.27
-4.77,-0.17,7.73,7.07,7.07,7.49
-5.22,-0.06,7.96,9.73,10.71,11.20
-4.61,0.13,8.51,13.79,13.79,13.79
-4.06,0.02,8.71,16.94,16.94,16.87
-2.80,0.56,8.17,16.45,16.45,16.45
-2.39,0.58,9.00,16.66,16.66,16.66
-2.22,0.71,9.26,17.15,17.08,17.08
-1.61,0.92,9.76,14.77,14.21,14.21
-1.65,1.07,10.11,8.68,6.86,5.95
-1.96,0.93,10.77,1.54,1.54,-0.77
-2.44,0.71,11.44,-3.92,-3.92,-3.92
-2.54,1.09,11.89,-5.81,-5.81,-5.81
-2.36,1.08,12.33,-8.61,-8.61,-8.61
-1.69,0.62,12.46,-12.74,-12.74,-12.95
-1.17,0.42,12.37,-15.75,-15.75,-15.75
-1.31,0.05,12.26,-19.81,-19.95,-19.95
-1.96,-0.56,12.09,-19.67,-19.39,-19.39
-2.51,-0.94,11.66,-14.77,-14.77,-14.14
-2.52,-0.70,11.24,-10.01,-10.01,-9.52
-2.14,-0.68,11.17,-6.58,-6.58,-6.23
-1.46,-0.40,11.15,-4.62,-4.62,-4.48
-1.03,-0.16,10.76,-3.43,-3.43,-3.15
-1.28,0.22,10.22,-1.26,-1.26,-0.98
-1.71,0.46,9.77,-1.47,-1.47,-1.47
-1.79,0.35,9.22,-3.85,-3.85,-3.85
-1.63,0.13,8.51,-1.40,-1.40,-1.40
-2.74,-0.43,7.76,2.94,3.15,3.15
-3.10,-1.00,7.42,5.53,6.09,6.09
-3.85,-1.17,6.87,11.41,11.41,12.53
-4.86,-1.03,6.21,18.13,18.13,18.69
-5.01,-0.68,5.72,19.74,19.74,19.81
-4.89,-0.09,5.20,18.90,18.48,18.06
-5.70,-0.13,4.57,15.68,15.68,14.07
-6.44,-0.53,4.20,10.78,10.78,10.29
-6.48,-0.73,3.58,5.88,5.88,5.46
-6.85,-0.77,3.15,3.01,3.01,2.73
-7.56,-1.03,2.93,2.31,2.31,2.52
-7.57,-0.77,1.72,6.16,6.44,6.44
-7.80,-0.18,0.78,6.79,6.79,6.79
-8.25,-0.34,-0.10,5.46,5.46,5.46
-8.64,-0.56,-0.43,4.83,4.55,4.55
-9.09,-0.51,-1.04,3.57,3.57,3.22
-9.48,-0.23,-1.93,1.82,1.82,1.82
-9.57,-0.05,-2.79,1.54,1.54,1.68
-9.56,0.19,-3.39,2.66,2.87,2.87
-9.57,0.23,-4.63,2.38,2.38,2.31
-9.29,0.31,-5.37,1.61,1.61,1.54
-9.34,0.11,-6.04,4.48,4.48,4.48
-9.88,-0.31,-6.36,9.94,9.94,9.94
-9.97,-0.53,-7.00,21.28,21.28,21.28
-9.83,-0.48,-7.66,28.63,28.63,28.63
-10.08,-0.26,-8.18,36.61,37.80,37.80
-10.32,-0.73,-8.16,42.56,43.40,45.43
-9.69,-1.04,-8.55,51.10,51.10,51.80
-8.65,-1.30,-8.96,57.68,57.68,58.45
-7.90,-1.63,-9.22,64.68,64.68,64.68
-6.49,-2.53,-9.54,91.21,91.21,96.32
-5.82,-1.79,-9.75,109.20,109.20,94.29
-9.58,-2.88,-7.79,18.06,18.06,18.06
-8.49,-1.48,-8.19,43.05,43.05,43.05
-6.85,-1.57,-7.08,77.77,77.77,77.77
-8.63,-2.09,-7.80,96.18,96.18,96.18
-8.44,0.33,-7.62,95.76,97.65,97.65
-7.96,0.89,-7.61,98.21,98.21,97.37
-6.75,1.74,-7.70,89.88,89.88,89.88
-6.03,2.71,-7.61,59.57,59.57,59.57
-5.91,2.67,-7.15,31.43,27.51,27.51
-5.72,2.25,-6.95,8.33,-2.31,-2.31
-5.55,1.40,-7.08,-22.19,-22.19,-25.34
-5.52,0.42,-7.15,-46.41,-48.37,-48.37
-5.79,-0.83,-7.13,-55.72,-57.75,-57.75
-5.92,-2.17,-7.43,-57.75,-57.26,-56.70
-5.97,-3.08,-7.94,-47.46,-45.92,-45.92
-5.78,-3.46,-8.21,-36.89,-30.94,-30.94
-5.45,-3.54,-8.44,-20.65,-14.42,-14.42
-4.71,-3.23,-8.91,-2.80,-0.98,-0.98
-4.28,-2.79,-9.31,11.06,11.06,12.11
-4.37,-2.07,-9.26,15.96,16.94,17.29
-4.88,-1.79,-9.23,17.78,17.78,17.78
-5.22,-1.96,-9.29,17.29,17.29,17.43
-5.53,-1.80,-9.27,17.43,17.43,17.43
-5.74,-1.39,-9.20,16.45,16.45,16.17
-6.13,-1.51,-8.87,13.51,13.51,13.23
-5.71,-1.46,-9.16,12.25,12.25,11.97
-5.31,-1.48,-9.56,12.04,12.04,12.04
-5.18,-1.24,-9.91,6.44,6.44,6.44
-5.13,-1.12,-9.98,1.40,1.40,-0.21
-5.10,-1.16,-10.07,-6.23,-6.23,-6.23
-5.19,-1.99,-10.47,-13.51,-13.37,-13.37
-5.36,-2.55,-10.08,-11.83,-10.29,-10.29
-5.59,-3.12,-9.76,-5.46,-5.46,-5.46
-5.58,-3.46,-10.25,1.82,1.82,1.82
-5.64,-3.33,-10.41,4.76,5.53,5.53
-5.90,-3.05,-10.27,6.30,6.30,6.09
-5.92,-2.94,-9.78,3.78,3.29,3.29
-5.89,-2.91,-9.28,-0.28,-0.91,-0.91
-6.09,-2.63,-8.69,-6.16,-7.07,-7.07
-6.55,-2.19,-8.31,-11.97,-12.95,-12.95
-6.66,-1.75,-8.58,-23.52,-24.85,-24.85
-6.67,-1.58,-8.61,-34.16,-35.42,-35.42
-6.66,-1.45,-8.16,-41.51,-42.63,-44.73
-6.94,-1.52,-7.74,-51.87,-51.87,-52.71
-7.44,-1.75,-7.31,-56.98,-56.98,-56.98
-7.92,-1.97,-6.94,-55.30,-54.74,-54.74
-8.18,-1.87,-6.34,-46.90,-46.90,-45.57
-8.66,-1.64,-5.82,-40.11,-38.01,-36.82
-8.60,-1.18,-5.40,-31.71,-31.71,-28.98
-8.48,-0.81,-4.90,-25.06,-25.06,-24.43
-8.11,-0.28,-4.28,-19.46,-19.46,-19.25
-8.07,0.34,-4.05,-18.62,-18.62,-18.83
-8.33,0.45,-3.68,-21.56,-21.56,-21.91
-8.64,0.46,-3.21,-22.19,-21.63,-21.35
-8.64,0.53,-2.57,-20.16,-20.16,-19.95
-8.87,1.08,-1.26,-26.74,-26.74,-26.95
-9.14,0.88,-0.77,-27.79,-27.79,-27.58
-8.87,0.73,-0.33,-25.90,-25.48,-25.48
-8.27,1.32,-0.11,-26.39,-26.67,-26.67
-8.52,0.99,1.06,-34.02,-34.02,-34.02
-8.33,1.16,1.48,-34.65,-34.65,-34.65
-8.14,1.35,1.62,-41.51,-41.51,-41.51
-8.10,1.23,1.86,-48.37,-48.37,-48.37
-7.99,0.96,2.03,-50.68,-50.89,-50.89
-8.32,0.56,2.36,-49.14,-49.14,-49.14
-8.48,0.46,2.67,-45.36,-45.36,-45.36
-8.71,0.70,2.70,-43.54,-43.26,-43.26
-9.28,0.25,3.16,-40.67,-39.90,-39.90
-9.29,-0.34,3.57,-27.65,-27.65,-26.11
-9.15,-0.20,3.82,-17.29,-17.29,-16.24
-8.49,0.34,4.01,-11.83,-11.83,-11.83
-8.21,0.60,4.42,-11.90,-11.90,-12.11
-8.41,0.50,4.90,-11.06,-11.06,-11.06
-8.37,0.29,5.28,-5.53,-5.53,-5.53
-7.72,0.45,5.22,-3.08,-3.08,-3.08
-7.38,0.60,5.38,-3.36,-3.57,-3.57
-7.15,0.94,5.77,-5.88,-5.88,-6.23
-6.92,1.32,6.01,-8.96,-8.96,-11.06
-7.30,1.26,6.12,-13.79,-13.79,-14.21
-7.86,0.75,6.45,-15.89,-15.89,-15.82
-7.73,0.73,6.73,-14.63,-14.63,-14.42
-7.28,0.89,6.81,-14.84,-14.84,-14.84
-6.66,0.99,6.91,-16.17,-16.73,-16.73
-5.99,0.92,7.01,-18.41,-18.41,-18.41
-6.31,0.50,7.21,-17.15,-17.15,-17.15
-6.70,0.60,7.38,-12.46,-12.46,-12.46
-6.93,0.54,7.50,-7.63,-7.63,-7.63
-6.45,0.54,7.32,-2.45,-2.45,-2.45
-5.56,0.34,7.44,-0.35,0.14,0.14
-3.98,0.37,7.83,0.70,0.70,0.84
-3.07,0.52,8.35,0.49,0.49,0.42
-2.46,0.45,9.07,-0.28,-0.28,-0.35
-2.17,0.36,9.70,-0.56,-0.56,-0.63
-1.96,0.12,10.01,-1.96,-1.96,-1.96
-1.50,0.24,10.15,-4.27,-5.25,-5.25
-1.75,0.24,10.32,-10.29,-12.11,-12.11
-2.12,-0.03,10.55,-16.38,-16.80,-16.80
-2.81,-0.57,10.66,-16.52,-16.52,-16.24
-3.69,-0.91,10.49,-14.56,-14.56,-14.35
-3.78,-0.94,10.22,-13.30,-13.30,-13.30
-2.90,-0.81,9.92,-12.88,-12.88,-12.88
-2.53,-1.06,9.64,-10.01,-10.01,-10.01
-2.15,-1.14,9.63,-6.86,-6.86,-6.86
-2.09,-1.18,9.62,-3.85,-3.85,-3.50
-1.92,-1.30,9.25,-0.07,0.70,0.70
-2.31,-1.65,8.76,8.54,8.54,9.73
-2.78,-1.19,8.37,15.19,15.96,15.96
-3.20,-0.47,7.80,20.79,20.79,21.00
-4.19,-0.24,7.40,21.56,21.56,21.70
-5.47,-0.30,7.16,21.42,21.42,21.28
-6.43,-0.22,6.84,20.72,20.72,20.72
-6.92,-0.26,6.70,21.63,21.63,21.63
-7.06,0.08,6.18,20.09,19.46,19.46
-7.05,0.16,5.79,15.26,15.26,14.49
-7.31,-0.17,5.58,9.17,9.17,9.17
-7.11,-0.33,5.40,7.91,7.56,7.56
-6.87,-0.35,4.76,6.93,6.93,6.58
-6.97,-0.34,3.35,2.03,2.03,1.47
-6.95,-0.80,2.54,1.89,1.89,1.89
-7.63,-1.66,2.01,8.12,8.12,8.12
-8.07,-1.80,1.51,20.58,20.58,20.58
-8.01,-1.53,0.77,26.53,26.53,26.53
-8.02,-1.53,-0.30,31.43,32.13,32.13
-8.58,-1.96,-0.96,36.19,36.19,36.19
-9.01,-1.71,-1.59,40.11,40.11,40.11
-8.94,-1.31,-2.01,39.76,39.20,39.20
-8.87,-1.23,-2.82,37.59,37.59,37.52
-9.31,-1.50,-3.70,38.50,38.50,38.50
-9.39,-1.12,-4.78,39.48,39.48,39.48
-9.12,-1.00,-5.27,36.68,35.42,35.42
-8.88,-1.14,-6.05,31.57,30.94,29.75
-9.08,-1.79,-6.80,28.63,28.77,28.77
-9.53,-2.40,-7.02,31.92,32.69,32.69
-9.82,-2.29,-7.04,37.66,37.66,37.66
-9.67,-2.04,-7.30,39.69,39.62,39.62
-9.40,-2.06,-7.31,38.43,37.59,37.59
-8.12,-2.69,-7.70,35.98,35.98,35.98
-8.14,-2.97,-7.60,37.73,37.73,37.73
-8.33,-3.05,-7.49,40.46,40.67,40.67
-8.33,-3.18,-7.49,41.72,42.14,42.14
-7.69,-3.20,-7.42,41.79,41.51,41.51
-6.97,-3.20,-7.03,37.24,37.24,36.75
-6.12,-3.41,-6.71,34.23,34.23,34.23
-6.00,-4.02,-6.32,32.06,32.06,32.06
-5.77,-4.19,-6.37,32.55,32.55,32.55
-5.73,-4.18,-6.45,30.73,30.73,30.73
-5.47,-3.91,-6.62,24.29,24.29,24.29
-5.27,-3.73,-6.63,16.17,16.17,16.17
-5.46,-3.94,-6.42,6.30,6.30,6.30
-5.56,-4.16,-6.37,-0.35,-1.19,-1.19
-5.75,-4.07,-6.81,-8.47,-9.52,-9.52
-5.26,-4.10,-7.24,-17.43,-17.43,-17.43
-4.81,-4.42,-7.48,-24.92,-24.92,-24.92
-4.19,-4.67,-8.40,-32.90,-33.74,-33.74
-3.93,-5.02,-8.94,-38.64,-39.48,-39.48
-3.81,-4.76,-10.05,-56.42,-58.52,-59.57
-3.92,-5.25,-9.78,-64.12,-64.12,-64.12
-3.95,-5.83,-9.31,-60.90,-60.90,-60.90
-3.91,-6.41,-8.98,-52.85,-49.14,-49.14
-3.93,-6.76,-8.21,-34.30,-34.30,-31.99
-3.56,-6.48,-8.00,-13.09,-13.09,-13.09
-2.87,-5.92,-7.93,-2.87,-1.40,-1.40
-2.39,-5.25,-7.98,6.44,7.21,7.21
-2.08,-4.57,-8.05,9.45,9.45,9.24
-2.10,-3.98,-8.08,6.72,5.18,4.20
-2.31,-3.63,-7.96,-0.49,-0.49,-3.57
-2.56,-3.61,-8.19,-8.61,-8.61,-11.48
-2.87,-3.84,-8.76,-17.85,-17.85,-17.85
-3.21,-4.24,-9.06,-23.52,-24.57,-24.57
-3.51,-4.38,-9.53,-26.81,-26.81,-27.44
-4.17,-4.70,-9.92,-28.49,-28.49,-28.56
-4.69,-4.66,-10.03,-26.88,-26.88,-26.53
-5.01,-4.85,-10.27,-23.59,-23.59,-23.17
-5.11,-4.99,-10.60,-21.42,-21.00,-21.00
-5.09,-4.71,-10.22,-16.73,-16.73,-16.24
-5.18,-4.53,-9.67,-13.51,-12.53,-12.04
-4.89,-3.97,-9.45,-10.92,-11.13,-11.13
-4.75,-3.24,-9.69,-27.79,-30.80,-31.99
-4.86,-3.66,-9.23,-36.61,-36.61,-36.61
-5.18,-3.88,-8.80,-35.07,-35.07,-35.07
-6.21,-3.57,-8.31,-35.14,-35.14,-35.14
-6.81,-3.23,-7.90,-36.47,-36.68,-36.89
-6.92,-3.35,-8.04,-36.33,-36.12,-36.12
-6.42,-3.28,-9.17,-34.02,-33.88,-33.88
-6.47,-3.13,-9.45,-32.76,-32.27,-32.27
-7.63,-3.03,-9.14,-30.38,-29.75,-28.35
-8.82,-2.30,-7.31,-16.66,-15.82,-15.82
-8.40,-1.56,-6.63,-13.02,-13.02,-13.02
-7.87,-0.90,-6.16,-15.89,-16.52,-16.52
-7.09,-0.12,-6.01,-22.75,-24.43,-28.28
-5.90,0.67,-5.62,-40.53,-43.12,-43.12
-5.76,0.82,-4.71,-68.88,-68.88,-71.68
-6.08,0.68,-4.04,-87.50,-87.50,-89.25
-6.19,0.36,-3.51,-99.96,-99.96,-101.36
-7.18,0.21,-3.57,-108.71,-108.71,-108.71
-8.99,-0.21,-3.41,-115.36,-115.36,-115.3
-9.92,-0.76,-3.13,-112.49,-112.49,-111.4
-9.81,-0.89,-2.80,-104.09,-104.09,-104.0
-9.69,-0.56,-2.64,-96.18,-96.18,-94.71
-9.60,-0.19,-2.19,-90.16,-90.16,-88.62
-9.60,0.12,-1.72,-83.09,-83.09,-81.34
-9.34,0.42,-1.10,-75.25,-75.25,-75.25
-9.19,0.40,-0.44,-65.38,-65.38,-63.91
-9.10,0.30,0.28,-50.96,-50.96,-50.96
-9.57,0.37,0.61,-42.00,-39.27,-39.27
-9.65,0.60,0.89,-31.43,-31.43,-29.19
-9.71,0.89,1.11,-22.12,-22.12,-22.12
-9.48,1.29,1.26,-18.06,-17.78,-17.78
-9.23,1.06,1.53,-17.15,-17.15,-16.73
-8.76,0.75,1.84,-14.84,-14.84,-14.84
-8.91,0.81,2.07,-15.47,-15.47,-16.31
-9.49,0.86,2.73,-21.35,-22.54,-22.54
-8.98,1.14,2.81,-35.28,-35.28,-37.10
-8.43,0.68,2.79,-47.67,-47.67,-49.00
-8.72,-0.54,3.10,-56.98,-56.98,-57.33
-8.74,-0.76,3.43,-59.08,-59.43,-59.43
-7.89,-0.71,3.57,-63.91,-63.91,-64.47
-7.96,-1.07,3.89,-65.87,-65.87,-65.80
-8.42,-1.29,4.36,-63.77,-63.77,-63.42
-3.46,-3.16,5.27,-36.47,-36.47,-34.93
-3.74,-3.43,5.49,-25.97,-25.97,-23.17
-3.62,-3.31,6.06,-19.60,-19.60,-19.04
-3.02,-3.18,6.52,-14.56,-14.56,-14.14
-3.52,-3.35,6.96,-10.15,-10.15,-9.45
-3.48,-3.63,6.94,-6.93,-6.93,-6.58
-3.06,-3.94,7.10,-3.78,-3.78,-3.78
-2.66,-4.13,7.56,-0.49,-0.49,-0.49
-3.00,-4.33,8.04,3.01,3.01,3.01
-3.18,-4.38,8.05,5.67,5.67,5.67
-3.04,-4.56,8.12,10.08,10.08,10.08
-1.56,-4.77,9.47,14.21,14.21,14.28
0.39,-5.00,10.38,15.54,15.54,15.54
1.32,-5.28,10.82,17.99,17.99,17.99
1.52,-5.28,11.13,19.67,20.16,20.16
-0.77,-5.81,11.22,35.42,36.40,36.40
-1.23,-5.71,10.47,42.91,42.91,43.05
-0.56,-5.00,10.12,41.09,41.09,40.60
0.25,-5.34,10.06,40.53,40.53,40.53
-0.04,-5.31,9.49,43.75,44.03,44.03
-1.12,-4.97,9.21,42.42,42.42,41.72
-1.70,-4.58,9.02,40.53,40.53,40.53
-1.56,-4.02,8.40,43.47,43.40,43.40
-1.50,-3.20,8.03,41.16,40.53,40.53
-1.50,-2.54,7.68,36.68,36.19,36.19
-2.03,-2.37,7.25,33.04,33.04,33.11
-3.04,-2.32,6.96,34.79,35.98,36.68
-4.66,-2.63,6.80,41.86,41.86,46.62
-5.29,-2.63,6.39,56.42,56.42,58.45
-5.71,-2.22,5.61,75.46,75.46,76.93
-5.86,-1.95,5.13,85.05,87.78,88.97
-5.75,-1.19,4.12,95.62,96.39,96.39
-6.56,-0.66,3.35,101.92,101.92,102.13
-8.02,-0.53,2.96,104.65,104.65,105.21
-8.72,-0.50,2.22,109.62,109.62,109.62
-9.01,-0.23,1.76,110.74,110.74,110.74
-9.39,0.13,1.45,108.78,108.78,107.66
-9.82,0.73,0.98,102.27,102.27,102.27
-10.58,1.62,0.78,89.46,89.46,87.36
-10.98,2.08,0.51,70.07,64.82,64.82
-10.96,1.87,0.03,46.83,46.83,44.38
-11.68,1.53,-0.32,26.81,26.81,26.81
-12.45,0.74,-0.69,17.92,17.92,0.00
-12.52,0.23,-0.92,14.56,14.56,14.56
-12.51,0.01,-1.04,14.49,14.49,14.49
-12.34,0.01,-1.30,16.38,16.38,16.38
-11.90,0.02,-1.29,17.64,17.64,17.64
-11.44,-0.14,-1.06,20.09,20.09,20.09
-10.92,-0.10,-1.05,22.33,22.33,22.33
-10.46,-0.08,-0.88,25.13,25.13,25.13
-9.98,0.01,-0.70,26.53,26.53,26.74
-9.60,-0.05,-0.49,29.89,29.89,29.89
-9.24,0.04,-0.51,33.95,33.95,33.95
-9.05,0.02,-0.34,37.73,37.73,37.73
-8.87,0.13,-0.32,39.55,39.83,39.83
-8.63,0.30,-0.56,39.90,39.90,39.83
-8.82,0.25,-0.79,40.04,40.04,40.04
-9.13,0.24,-0.99,40.11,39.90,39.90
-9.33,0.29,-1.33,38.64,38.64,38.01
-9.50,0.22,-1.60,36.26,36.26,36.26
-9.59,0.10,-1.87,34.16,34.16,34.16
-9.45,0.15,-2.04,31.85,30.87,30.87
-9.34,0.25,-2.09,25.48,25.48,25.48
-9.30,0.24,-2.34,18.90,18.90,18.90
-9.31,-0.19,-2.65,14.07,14.07,14.07
-9.37,-0.77,-2.85,12.46,12.53,12.53
-9.50,-1.16,-3.11,14.49,14.84,14.84
-9.49,-1.11,-3.31,15.82,15.75,15.75
-9.38,-1.00,-3.49,14.98,14.98,14.49
-8.65,-1.12,-4.15,9.45,8.96,8.96
-8.40,-1.12,-4.51,4.69,4.69,4.69
-8.62,-1.37,-4.70,0.56,0.35,0.35
-8.77,-1.49,-4.95,-1.96,-2.24,-2.24
-8.64,-1.61,-5.14,-3.43,-3.64,-3.64
-8.55,-2.02,-5.39,-1.68,-1.68,-1.12
-8.66,-2.32,-5.60,4.27,4.27,5.46
-8.54,-2.46,-5.78,10.64,10.64,14.21
-7.03,-1.75,-7.24,23.24,23.24,23.24
-7.59,-2.19,-7.04,24.85,24.85,24.85
-8.01,-2.49,-6.83,32.20,33.18,33.18
-8.00,-2.68,-6.76,38.64,42.00,42.00
-7.72,-2.72,-6.72,47.46,48.72,50.96
-7.55,-2.95,-6.77,57.12,58.31,58.31
-5.58,-1.21,-7.64,64.12,62.86,61.46
-5.31,-0.85,-7.52,48.23,46.48,46.48
-5.42,-1.06,-7.31,36.61,36.61,36.61
-6.04,-2.17,-7.25,20.23,20.09,20.09
-5.79,-2.23,-7.39,17.85,17.85,17.85
-5.85,-2.32,-7.12,15.05,15.05,15.05
-5.74,-3.27,-6.59,16.38,16.38,16.73
-4.93,-3.31,-7.25,22.47,21.91,21.91
-4.69,-3.50,-8.27,18.62,17.64,17.64
-4.54,-4.11,-8.95,11.62,11.62,9.80
-4.82,-5.11,-9.74,2.73,2.73,2.31
-5.06,-5.40,-10.73,-2.66,-2.66,-2.66
-5.38,-5.67,-10.89,-6.23,-7.07,-7.07
-5.55,-6.01,-10.37,-6.72,-6.72,-6.72
-5.85,-6.23,-9.57,-1.26,-1.26,-1.26
-5.81,-6.11,-9.16,6.16,6.16,6.16
-5.70,-5.88,-8.67,12.81,12.81,12.81
-5.40,-5.42,-8.50,16.10,16.38,16.38
-4.91,-4.78,-8.46,14.91,14.91,13.51
-4.76,-4.08,-8.01,4.27,4.27,4.27
-4.99,-3.43,-7.66,-5.88,-9.45,-9.45
-5.50,-3.17,-7.44,-20.93,-25.06,-25.06
-6.10,-3.15,-6.82,-38.57,-38.57,-38.57
-6.43,-2.92,-6.44,-47.67,-50.47,-50.47
-6.61,-2.86,-6.41,-58.03,-58.03,-60.34
-6.62,-3.32,-6.68,-64.54,-64.96,-65.94
-6.48,-3.55,-7.00,-67.62,-67.76,-67.76
-6.68,-3.44,-7.48,-70.98,-70.98,-71.68
-7.00,-3.73,-8.37,-81.20,-82.04,-82.04
-9.23,-4.63,-7.10,-80.15,-80.15,-79.59
-9.57,-4.80,-6.40,-69.09,-69.09,-69.09
-8.56,-3.68,-5.60,-48.02,-47.39,-47.39
-7.94,-3.04,-5.81,-47.32,-47.32,-47.95
-7.33,-2.23,-5.80,-51.80,-53.62,-54.53
-7.53,-2.03,-5.12,-59.22,-59.78,-59.78
-7.81,-2.39,-4.23,-60.62,-60.62,-60.27
-8.37,-2.42,-3.37,-56.07,-56.07,-55.30
-8.98,-2.55,-2.71,-50.47,-48.30,-47.18
-8.91,-2.40,-2.15,-41.23,-41.23,-38.01
-8.46,-2.18,-1.87,-34.02,-34.02,-33.53
-7.85,-1.64,-1.55,-33.67,-35.00,-35.63
-7.24,-1.19,-1.16,-41.51,-42.84,-42.84
-7.45,-1.11,-0.76,-53.69,-53.69,-55.09
-7.90,-1.33,-0.55,-61.95,-61.95,-62.93
-8.57,-1.83,-0.02,-65.87,-65.87,-65.80
-8.80,-1.91,0.18,-64.19,-64.19,-64.19
-8.88,-1.83,0.55,-62.79,-62.79,-62.44
-9.14,-1.58,0.90,-60.20,-60.20,-59.92
-9.48,-1.67,1.06,-56.77,-56.00,-56.00
-9.54,-1.76,1.47,-48.23,-48.23,-47.18
-9.16,-1.64,1.82,-39.97,-39.97,-38.92
-8.68,-1.64,2.17,-31.85,-31.85,-30.59
-8.36,-1.49,2.68,-22.05,-22.05,-21.21
-8.09,-1.30,3.12,-12.25,-12.25,-12.25
-8.15,-1.44,3.37,-4.48,-4.48,-4.48
-8.82,-1.72,3.80,8.61,8.61,8.61
-8.48,-1.31,3.86,13.86,13.86,14.28
-8.32,-1.17,4.26,19.53,19.53,19.53
-8.85,-1.19,5.22,33.74,33.74,33.74
-8.38,-0.95,6.13,51.38,51.38,51.87
-7.50,-0.37,6.41,50.47,50.47,50.47
-7.46,0.13,6.70,40.81,39.41,39.41
-8.09,0.23,6.68,34.58,34.02,34.02
-8.09,0.32,6.80,30.38,30.38,29.75
-7.78,0.39,6.78,24.64,24.64,24.22
-7.38,0.39,6.87,20.44,20.44,20.02
-7.15,0.50,6.80,17.50,16.52,16.52
-7.61,0.27,6.72,14.28,14.14,14.14
-7.07,0.25,6.59,14.35,14.35,14.21
-5.46,0.48,6.75,12.67,12.67,12.67
-3.93,0.38,7.11,10.64,10.64,10.64
-2.66,0.44,7.58,9.52,9.52,9.52
-1.95,0.39,8.08,8.75,8.75,8.75
-2.11,0.09,8.48,10.78,10.78,10.78
-2.63,0.13,8.90,14.98,14.98,14.98
-2.95,0.26,9.32,16.31,16.31,16.31
-2.79,0.89,9.48,14.28,12.74,12.74
-2.33,1.20,9.67,5.04,5.04,3.99
-1.94,1.11,10.14,-6.02,-6.02,-6.02
-1.48,1.06,10.40,-12.60,-12.60,-15.05
-1.21,0.97,10.62,-22.47,-22.47,-22.47
-0.37,0.40,10.94,-33.18,-33.18,-33.18
0.92,0.26,10.80,-42.00,-42.00,-42.00
1.59,-0.01,10.68,-50.47,-50.47,-50.47
1.29,-1.24,10.64,-51.10,-49.63,-49.63
0.33,-3.22,10.60,-37.24,-37.24,-37.24
0.11,-3.55,10.03,-23.87,-23.87,-21.63
-0.47,-3.62,9.21,-0.56,-0.56,-0.56
-1.23,-3.35,8.76,10.92,14.35,14.35
-2.26,-3.11,8.12,24.57,25.97,25.97
-3.10,-2.86,7.68,39.48,39.48,40.67
-4.53,-2.35,7.27,47.04,47.04,47.81
-6.28,-1.62,6.35,52.64,52.64,52.64
-6.41,-1.22,5.72,51.73,51.73,51.73
-6.66,-0.86,5.44,49.98,49.49,49.49
-7.29,-0.62,5.15,48.58,48.58,48.58
-8.61,0.20,4.48,37.31,36.47,36.47
-8.97,0.60,3.92,25.76,25.76,24.50
-9.30,0.81,3.75,18.20,15.89,14.63
-9.91,1.16,2.89,0.21,0.21,-0.49
-10.28,1.33,2.38,-7.21,-7.21,-7.21
-10.26,1.26,1.85,-10.71,-10.71,-10.71
-11.20,0.96,0.81,-4.90,-4.90,-4.90
-11.18,0.87,0.44,2.38,2.38,2.38
-10.74,0.98,0.11,11.97,11.97,11.97
-10.49,0.86,0.01,17.08,17.99,17.99
-10.28,0.80,-0.16,26.46,26.46,26.46
-9.61,1.15,-0.49,30.38,31.22,31.22
-9.26,1.27,-0.63,33.53,34.44,34.44
-9.01,1.24,-0.71,37.31,38.36,38.36
-9.20,1.05,-0.81,41.86,41.86,43.12
-9.60,0.89,-1.00,48.16,48.16,49.63
-9.69,1.11,-1.34,53.48,53.48,53.48
-9.68,1.24,-1.61,57.12,57.12,57.47
-9.68,1.04,-1.82,60.48,60.48,61.32
-10.12,1.01,-1.97,65.24,65.24,65.24
-10.15,1.21,-2.34,65.59,65.45,65.45
-10.21,1.14,-2.56,64.33,63.63,63.63
-9.96,0.99,-2.64,62.65,62.44,61.95
-9.93,1.03,-2.80,60.97,60.83,60.27
-9.70,1.21,-2.96,56.84,56.21,56.21
-9.38,1.17,-3.06,51.73,50.96,50.96
-8.98,0.95,-3.26,44.45,44.45,44.03
-8.55,0.73,-3.38,41.09,41.09,40.88
-8.45,0.43,-3.56,38.78,38.78,38.78
-8.80,0.14,-3.66,37.94,37.87,37.87
-8.82,-0.25,-3.78,38.08,38.08,38.29
-8.67,-0.59,-4.11,42.14,42.14,42.14
-8.73,-0.57,-4.48,45.36,45.36,45.36
-8.70,-0.18,-4.69,44.80,43.68,43.68
-8.17,0.13,-4.92,38.92,38.92,37.17
-7.79,0.14,-5.14,32.13,32.13,32.13
-7.88,-0.17,-5.28,27.16,27.16,26.39
-8.16,-0.45,-5.50,25.97,25.97,25.97
-8.56,-0.59,-5.72,27.86,28.14,28.14
-7.57,-0.22,-6.28,30.94,30.94,30.94
-7.57,-0.01,-6.45,27.93,27.93,27.37
-7.34,-0.02,-6.70,25.34,24.43,24.08
-7.26,-0.34,-6.75,23.10,23.24,23.24
-7.37,-0.58,-6.70,24.08,24.08,24.15
-7.11,-0.42,-6.71,24.01,23.73,23.31
-6.73,-0.14,-7.00,21.14,20.02,19.39
-6.40,-0.19,-7.21,16.24,16.24,14.49
-6.36,-1.12,-7.19,12.11,12.11,12.11
-6.54,-1.38,-7.07,12.39,12.46,12.46
-6.34,-1.52,-7.16,11.20,10.99,10.99
-5.85,-1.75,-7.41,7.49,6.23,5.39
-5.24,-2.00,-7.77,1.05,-0.91,-0.91
-5.39,-2.56,-8.10,-5.25,-6.23,-6.23
-5.80,-2.94,-8.51,-7.35,-7.63,-7.63
-5.67,-2.77,-9.00,-9.59,-10.01,-10.01
-4.97,-2.78,-10.27,-15.75,-15.75,-16.45
-4.49,-3.38,-11.30,-20.37,-20.37,-20.51
-4.53,-4.24,-11.88,-19.25,-19.25,-18.76
-4.99,-4.42,-11.89,-11.55,-11.55,-11.55
-5.10,-4.21,-11.47,-5.88,-3.85,-3.85
-5.09,-4.27,-10.62,2.94,2.94,5.39
-4.22,-3.95,-9.51,23.10,23.10,23.10
-3.78,-3.39,-9.01,21.42,21.42,21.42
-3.55,-2.73,-8.53,15.68,13.09,13.09
-2.94,-2.75,-7.96,4.62,4.62,1.75
-2.31,-3.32,-7.15,-7.28,-8.26,-8.26
-2.03,-3.56,-7.39,-13.93,-13.93,-14.28
-2.58,-3.25,-7.77,-14.42,-14.28,-13.93
-3.82,-2.83,-7.86,-12.60,-11.48,-11.13
-4.62,-2.66,-7.95,-7.28,-7.28,-3.78
-5.13,-2.60,-7.86,3.92,3.92,5.81
-5.74,-3.01,-7.43,25.06,25.06,27.58
-6.05,-3.19,-7.47,43.40,43.40,43.40
-5.98,-2.85,-8.95,60.69,65.87,65.87
-6.15,-2.09,-10.60,70.28,70.49,70.21
-7.08,-1.31,-11.46,67.06,65.94,65.94
-8.16,-1.08,-11.01,56.07,51.24,51.24
-9.47,-1.31,-9.28,39.97,39.97,39.97
-9.50,-1.68,-7.91,29.82,28.91,28.91
-9.01,-1.69,-7.37,22.26,22.26,22.26
-8.10,-1.14,-9.25,3.64,3.64,3.64
-7.72,-0.78,-9.64,-14.49,-14.49,-17.85
-7.92,-1.33,-7.07,-72.10,-72.10,-72.87
-7.84,-1.85,-7.62,-77.28,-78.12,-78.12
-7.63,-2.47,-8.37,-84.84,-84.84,-87.71
-7.07,-2.99,-8.77,-92.54,-92.54,-92.54
-6.60,-3.80,-8.14,-94.15,-93.66,-93.66
-6.30,-4.26,-7.35,-89.74,-86.52,-86.52
-6.56,-4.58,-6.15,-79.73,-78.05,-78.05
-7.40,-4.99,-4.83,-60.69,-58.24,-58.24
-7.48,-4.89,-4.18,-43.40,-43.40,-43.40
-6.94,-4.10,-3.11,-23.80,-23.80,-23.80
-6.50,-2.94,-2.49,-17.01,-15.54,-15.54
-5.95,-2.15,-1.56,-12.04,-12.04,-11.27
-5.50,-1.34,-0.99,-11.62,-11.62,-13.02
-5.81,-0.84,-0.40,-18.76,-18.76,-18.76
-6.54,-0.63,-0.11,-31.78,-31.78,-31.78
-7.25,-0.50,0.01,-40.04,-40.04,-40.04
-10.87,-1.94,0.46,-40.60,-40.60,-40.60
-10.49,-1.55,0.66,-37.87,-37.87,-37.87
-9.69,-1.20,0.65,-38.22,-38.57,-38.57
-9.20,-0.73,0.80,-44.87,-44.87,-45.57
-9.15,-0.92,1.24,-48.23,-48.23,-48.30
-9.28,-1.01,1.80,-47.32,-47.32,-47.32
-9.44,-1.46,2.38,-42.70,-42.70,-42.70
-9.04,-1.70,2.72,-36.54,-36.54,-36.54
-8.66,-1.79,3.07,-28.07,-28.07,-28.07
-8.48,-1.72,3.57,-17.99,-17.99,-17.99
-8.04,-1.72,3.90,-11.41,-9.03,-9.03
-7.74,-1.73,4.22,-1.68,-1.68,0.63
-7.73,-1.47,4.68,6.72,6.72,6.72
-7.67,-0.73,5.26,13.16,13.16,13.16
-7.70,-0.56,5.55,15.19,15.19,15.19
-7.59,-0.48,5.80,16.66,16.66,16.66
-7.50,-0.17,6.11,15.96,15.75,15.75
-6.21,0.51,6.41,13.16,10.64,10.64
-5.61,0.52,6.83,7.21,6.93,6.93
-5.51,1.01,7.07,2.45,1.19,1.19
-4.82,0.71,7.36,-2.94,-2.80,-2.80
-5.13,0.17,7.55,-1.47,-0.98,0.28
-5.31,-0.34,8.30,6.72,6.72,7.70
-5.16,-0.08,8.74,16.94,16.94,16.94
-0.21,0.42,10.09,22.26,21.91,21.91
0.58,0.77,10.33,19.46,19.46,18.13
0.51,0.99,10.70,11.62,10.50,10.50
-0.50,0.61,11.03,3.43,3.43,3.43
-2.42,-0.06,11.09,-1.26,-1.26,-1.26
-2.73,0.24,10.75,-3.99,-3.99,-3.99
-3.07,0.41,10.75,-7.70,-9.17,-9.17
-2.17,0.35,10.68,-14.28,-14.70,-14.70
-1.40,0.07,10.43,-18.62,-18.62,-18.97
-1.49,-0.49,10.46,-20.37,-20.79,-21.21
-1.27,-0.81,10.11,-22.26,-22.40,-22.40
-1.32,-1.38,9.79,-21.14,-21.14,-20.37
-1.28,-1.80,9.56,-14.14,-14.14,-12.81
-1.77,-1.59,8.99,-4.13,-2.38,-2.38
-2.62,-1.38,8.63,1.47,1.47,2.38
-2.91,-1.25,8.37,5.74,5.74,5.74
-3.27,-1.14,8.13,9.31,9.31,9.31
-3.26,-0.64,7.83,8.12,7.84,7.84
-3.10,-0.34,7.47,3.22,2.87,2.87
-3.94,-0.42,7.37,1.33,0.70,0.56
-4.96,-0.59,7.00,-0.21,-0.49,-0.49
-5.83,-0.74,6.65,-0.84,-0.84,-0.70
-6.60,-0.64,6.36,1.40,1.40,1.68
-7.12,-0.29,5.70,3.08,3.08,3.08
-7.56,-0.23,5.65,3.92,3.92,3.92
-7.53,-0.05,5.23,2.66,2.66,1.61
-7.81,0.33,4.71,-2.59,-2.59,-2.59
-7.90,1.01,3.94,-15.82,-15.82,-15.82
-8.37,1.16,3.46,-28.42,-28.42,-28.42
-8.91,1.23,3.25,-36.96,-39.48,-39.48
-9.66,1.18,2.94,-45.99,-45.99,-48.37
-10.18,1.67,2.62,-57.19,-57.19,-57.19
-10.34,2.22,2.24,-73.01,-73.01,-73.01
-10.36,2.90,2.05,-82.67,-84.42,-84.42
-10.45,3.16,1.61,-95.69,-95.69,-99.61
-10.54,2.69,1.56,-103.11,-103.11,-103.11
-10.61,2.46,1.48,-100.80,-100.80,-100.31
-11.09,2.94,1.28,-97.16,-97.16,-96.88
-10.88,3.01,0.99,-90.93,-90.93,-90.93
-10.08,3.40,0.69,-83.79,-83.79,-82.74
-9.69,3.21,0.61,-73.43,-70.07,-70.07
-9.16,3.13,0.29,-57.40,-57.40,-55.58
-9.26,3.26,-0.01,-42.07,-42.07,-42.07
-8.84,3.39,-0.28,-35.70,-33.95,-33.95
-8.62,3.34,-0.69,-28.77,-27.44,-27.44
-8.72,3.17,-0.99,-21.98,-21.42,-21.42
-9.41,4.04,-2.20,-25.55,-25.27,-25.27
-9.51,4.12,-2.53,-23.03,-23.03,-23.10
-9.30,4.24,-2.54,-24.01,-24.01,-24.29
-8.78,4.50,-2.76,-28.91,-28.91,-28.91
-8.63,4.10,-2.87,-31.15,-31.15,-31.15
-8.41,3.77,-2.84,-26.81,-26.81,-26.81
-8.30,4.07,-2.71,-25.20,-25.20,-25.20
-7.56,4.55,-2.84,-25.69,-25.69,-25.76
-7.67,3.57,-2.79,-13.44,-13.44,-13.44
-7.50,3.59,-2.87,-0.07,-0.07,-0.07
-6.60,4.12,-3.08,8.40,10.64,10.64
-6.14,4.67,-3.06,14.28,14.77,15.68
-5.60,5.05,-3.19,19.32,20.09,20.09
-5.52,5.56,-3.17,25.76,25.76,26.39
-5.56,5.99,-3.40,27.16,27.16,26.88
-5.00,6.99,-3.57,24.92,23.59,23.59
-4.34,8.09,-3.90,19.67,18.13,0.21
-4.21,9.22,-4.09,13.65,13.65,12.53
-3.59,10.29,-4.31,8.54,8.54,6.79
-3.93,11.55,-4.01,-5.25,-5.25,-5.25
-4.44,11.94,-3.77,-18.27,-22.82,-22.82
-4.32,12.43,-4.14,-27.44,-28.77,-28.77
-4.24,12.92,-4.61,-28.14,-28.14,-28.14
-4.44,12.61,-4.97,-20.37,-20.37,-20.37
-4.35,11.80,-5.28,-10.08,-10.08,-10.08
-3.69,10.94,-5.60,1.19,1.19,3.43
-4.19,10.24,-6.03,26.67,26.67,26.67
-4.37,9.21,-6.06,41.30,45.71,45.71
-4.60,7.56,-5.88,59.64,61.39,61.39
-5.18,6.39,-5.73,79.73,79.73,81.76
-6.07,5.73,-5.70,90.93,93.66,94.92
-6.55,5.71,-5.85,99.54,99.89,99.89
-6.58,5.59,-6.10,98.77,98.77,98.14
-6.50,5.64,-6.23,94.22,92.54,91.42
-6.80,5.85,-6.59,85.82,83.09,81.90
-7.26,5.94,-6.56,74.48,74.48,69.58
-7.96,5.68,-6.32,61.25,61.25,59.50
-8.36,5.46,-6.05,48.86,48.86,44.52
-8.63,5.09,-5.49,37.31,37.31,32.69
-9.02,4.62,-4.88,21.98,21.98,21.98
-9.05,4.23,-4.60,12.18,12.18,12.18
-8.74,3.55,-4.11,7.00,7.00,7.00
-8.50,3.52,-3.82,6.58,6.58,6.58
-8.27,3.36,-3.56,7.07,7.07,7.14
-8.13,3.12,-2.99,8.89,8.89,8.89
-8.07,2.52,-2.45,12.95,12.95,12.95
-7.81,2.09,-1.88,20.93,20.93,20.93
-7.41,1.78,-1.15,30.24,30.24,30.24
-7.29,1.61,-0.91,34.58,34.58,34.58
-7.25,1.54,-0.39,36.19,36.26,36.26
-7.78,1.37,-0.21,37.38,38.57,38.57
-8.85,1.04,-0.13,42.91,42.91,42.91
-9.61,0.64,0.30,53.13,53.13,53.13
-9.77,0.45,0.55,60.55,63.07,63.07
-9.69,0.93,0.94,69.44,69.44,69.44
-9.05,1.49,1.01,69.65,69.23,69.23
-8.37,2.11,1.52,60.55,60.55,59.43
-7.81,2.32,1.79,51.94,51.94,50.33
-7.35,2.38,2.28,35.21,35.21,33.74
-7.34,2.14,2.59,24.22,24.22,24.22
-7.40,1.57,2.91,17.22,17.22,16.45
-8.69,0.16,4.09,21.70,23.52,23.52
-8.67,-0.01,4.33,29.19,29.19,30.94
-8.46,0.30,4.44,35.21,35.21,35.21
-8.29,0.90,4.48,37.87,37.87,37.87
-8.15,0.93,4.66,36.54,36.54,36.54
-8.30,0.84,4.81,35.49,35.49,35.49
-8.85,0.66,4.98,35.77,35.77,35.77
-9.16,0.56,5.21,36.40,36.40,36.40
-8.92,0.56,5.38,39.06,39.06,39.06
-8.44,0.71,5.40,41.23,41.23,41.23
-7.76,1.20,5.44,39.41,38.85,38.85
-7.23,1.41,5.57,33.32,32.41,32.41
-7.25,1.41,5.67,25.27,25.27,24.15
-7.87,1.02,5.92,17.99,17.43,17.43
-8.35,0.57,6.17,16.45,17.01,17.01
-8.31,0.26,6.25,18.27,19.46,19.46
-7.68,0.22,6.43,20.79,21.00,21.00
-6.54,0.40,6.51,21.07,20.37,20.37
-5.93,0.84,6.72,16.24,15.12,15.12
-5.48,0.99,6.91,7.63,6.16,6.16
-5.26,0.70,7.21,-2.59,-2.59,-2.59
-5.71,0.42,7.56,-6.72,-6.86,-6.86
-6.05,0.10,7.82,-5.04,-4.55,-4.55
-6.03,-0.48,8.01,0.28,1.05,1.05
-6.17,-0.78,8.19,7.35,7.35,8.19
-5.87,-0.52,8.16,14.35,14.35,14.35
-5.33,-0.16,8.33,16.73,16.73,16.73
-3.65,0.93,8.07,9.80,9.03,9.03
-3.04,1.44,8.99,-1.75,-3.36,-3.36
-2.60,1.36,9.34,-13.23,-13.23,-13.23
-2.55,0.92,9.68,-25.55,-25.55,-26.46
-3.16,0.31,10.08,-31.64,-31.64,-31.64
-3.99,-0.02,10.22,-32.34,-32.06,-32.06
-4.56,-0.14,10.31,-30.31,-29.61,-29.12
-4.81,-0.15,10.16,-27.23,-27.23,-25.97
-5.03,-0.56,10.12,-24.22,-24.22,-23.87
-5.10,-1.12,9.98,-19.60,-17.92,-17.15
-4.78,-1.39,9.91,-13.02,-13.02,-10.64
-3.89,-1.56,9.79,-4.34,-4.34,-4.34
-3.26,-1.42,9.37,3.29,3.29,3.29
-2.92,-1.09,8.88,4.83,4.83,4.83
-3.64,-1.29,8.37,5.32,5.32,5.53
-4.37,-1.55,8.00,7.42,7.42,7.42
-4.77,-1.55,7.66,8.68,8.68,8.68
-5.01,-1.37,7.24,8.75,8.75,8.75
-5.62,-1.12,6.95,8.33,8.33,8.33
-6.08,-0.68,6.31,8.61,8.54,8.54
-6.50,-0.51,5.88,6.09,5.53,5.53
-7.00,-0.41,5.54,2.73,2.73,2.73
-7.24,-0.49,5.16,0.14,0.14,0.14
-7.43,-0.57,4.93,0.63,0.91,0.91
-7.52,-0.72,4.51,2.52,2.52,2.94
-7.37,-0.89,4.14,6.72,6.72,7.98
-7.54,-1.08,3.88,13.93,13.93,13.93
-7.68,-0.86,3.19,23.17,23.17,23.17
-8.04,-0.75,2.41,31.64,31.64,31.64
-8.61,-1.07,2.05,37.10,37.10,37.10
-9.11,-1.08,1.44,50.82,50.82,50.82
-9.64,-0.80,1.06,61.74,61.74,61.74
-9.98,-0.29,0.60,66.01,66.85,66.85
-9.82,0.09,-0.06,67.69,67.69,67.76
-10.34,-0.04,-0.21,70.35,70.35,70.35
-11.30,0.04,-0.23,73.01,73.43,73.43
-11.06,0.77,-0.30,71.12,71.12,70.49
-10.63,1.03,-0.35,62.51,62.51,61.46
-10.56,0.97,-0.40,54.95,54.95,54.95
-10.59,0.95,-0.43,43.40,43.40,43.40
-10.15,0.95,-0.30,35.28,35.28,35.28
-9.84,0.61,-0.17,29.54,29.54,29.54
-9.26,0.13,-0.36,28.56,28.56,28.56
-9.02,-0.00,-0.56,32.62,33.39,33.39
-9.17,-0.05,-0.73,39.13,39.13,39.97
-9.03,-0.17,-1.08,46.62,46.62,46.62
-8.75,-0.11,-1.66,56.91,56.91,56.91
-9.27,-0.15,-2.05,64.05,64.05,64.05
-10.23,-0.29,-2.44,70.84,70.84,70.84
-10.70,-0.25,-2.70,79.38,79.38,80.36
-10.77,0.05,-3.20,86.03,86.03,86.24
-10.72,0.39,-3.54,86.17,86.17,85.82
-10.58,0.72,-3.61,81.06,81.06,81.06
-10.30,1.12,-3.60,74.20,71.26,71.26
-10.10,1.40,-3.49,61.04,61.04,57.26
-9.81,1.43,-3.50,45.99,45.99,45.99
-9.66,1.10,-3.55,28.77,28.77,28.77
-9.51,0.66,-3.48,18.48,18.48,18.48
-9.62,0.15,-3.18,14.42,14.42,14.42
-9.84,-0.56,-2.87,13.93,14.07,14.07
-9.49,-0.74,-2.94,15.05,15.05,15.19
-8.93,-0.64,-3.03,15.68,15.68,15.68
-8.79,-0.86,-3.18,15.89,15.89,15.89
-8.92,-0.91,-3.40,17.01,17.15,17.15
-9.00,-0.91,-3.48,17.64,17.85,17.85
-9.23,-1.23,-3.68,18.41,19.39,19.39
-9.19,-1.67,-3.83,22.33,24.64,24.64
-8.97,-1.61,-4.36,29.68,30.24,30.24
-9.15,-1.19,-4.58,31.57,31.22,31.22
-9.28,-0.91,-4.56,28.98,28.98,28.98
-8.95,-0.77,-4.68,25.41,24.64,24.64
-8.54,-0.63,-4.87,21.63,21.63,20.44
-8.15,-0.75,-5.51,16.45,16.45,16.45
-8.21,-1.20,-5.94,14.21,14.21,14.21
-8.56,-1.72,-6.04,18.76,19.46,19.46
-8.77,-2.00,-6.03,23.38,24.99,25.76
-8.59,-1.56,-5.89,29.96,29.96,30.31
-8.42,-1.48,-5.77,31.22,31.22,31.22
-8.30,-1.56,-6.23,29.89,29.89,29.89
-8.27,-1.71,-6.70,27.30,26.67,26.67
-8.19,-1.73,-7.26,20.02,20.02,20.02
-8.71,-2.15,-7.52,10.08,9.10,9.10
-9.53,-2.42,-7.27,2.52,1.68,1.68
-10.21,-2.59,-7.30,-2.73,-3.43,-3.43
-10.27,-2.74,-7.50,-10.99,-10.99,-11.90
-9.91,-2.51,-7.59,-19.25,-19.25,-20.30
-10.08,-2.78,-6.25,-34.51,-34.51,-34.51
-9.96,-2.78,-5.55,-37.80,-37.80,-37.80
-9.49,-2.34,-5.17,-43.82,-43.82,-43.82
-8.93,-1.66,-4.83,-51.10,-51.10,-51.10
-8.60,-0.47,-3.80,-82.32,-83.51,-83.51
-8.77,-0.58,-3.09,-92.26,-92.26,-92.89
-9.07,-0.88,-2.65,-94.36,-94.43,-94.22
-9.17,-1.07,-2.13,-92.82,-92.82,-92.33
-9.07,-0.87,-1.78,-88.20,-88.20,-87.71
-8.91,-0.82,-1.49,-84.77,-84.77,-84.35
-9.05,-0.76,-1.32,-80.01,-80.01,-80.01
-9.23,-0.46,-1.51,-76.72,-76.79,-76.79
-9.35,-0.00,-1.48,-78.12,-78.61,-78.61
-9.42,-0.06,-1.53,-81.34,-81.34,-81.48
-10.05,-0.55,-1.42,-80.64,-80.64,-80.22
-10.94,-0.63,-1.08,-76.23,-76.23,-75.53
-11.40,-0.81,-0.78,-70.98,-70.14,-70.14
-10.91,-0.73,-0.95,-63.49,-63.49,-63.07
-9.89,-0.51,-0.89,-61.39,-60.97,-60.90
-8.98,-0.37,0.48,-53.90,-53.90,-53.06
-8.74,0.11,1.37,-44.59,-44.59,-44.59
-9.61,-0.15,1.56,-45.57,-45.57,-45.57
-9.82,-0.32,1.87,-39.13,-38.08,-35.70
-9.09,0.63,2.42,-23.73,-23.24,-23.24
-9.35,0.94,2.77,-21.42,-21.14,-20.72
-9.36,1.18,2.94,-18.55,-18.55,-18.20
-9.27,1.46,3.10,-16.52,-16.52,-16.52
-9.55,1.92,3.23,-17.50,-18.27,-18.27
-9.94,1.61,3.69,-19.67,-19.67,-19.67
-9.47,1.04,4.03,-15.26,-14.35,-14.35
-9.21,0.92,4.51,-7.77,-6.93,-6.93
-8.38,1.29,4.91,-3.29,-3.08,-3.08
-7.63,2.10,5.15,-3.43,-3.71,-3.71
-8.09,2.23,5.74,-7.28,-7.28,-7.35
-8.20,1.87,6.04,-6.23,-4.83,-3.99
-7.65,1.69,6.22,0.70,2.52,2.52
-6.76,2.15,6.43,6.93,7.28,7.28
-5.89,2.48,6.73,7.63,7.63,7.56
-5.40,2.62,6.73,4.97,4.97,4.97
-6.05,2.02,6.89,2.17,2.17,2.17
-6.31,1.68,6.89,3.15,3.57,3.57
-7.07,1.19,6.79,5.88,5.88,5.88
-7.41,1.07,6.55,6.37,6.16,6.16
-6.84,0.88,6.65,4.55,4.41,4.41
-6.38,0.75,6.76,4.13,4.13,4.27
-6.27,0.80,6.89,4.83,4.55,4.34
-5.79,1.07,6.95,2.59,2.59,1.40
-3.69,0.51,7.74,-4.83,-4.83,-4.83
-3.83,0.39,8.08,-10.50,-11.27,-11.27
-3.66,0.45,8.35,-16.45,-19.39,-19.39
-3.00,0.54,8.74,-25.41,-25.41,-25.41
-2.79,0.28,8.84,-31.85,-31.85,-32.69
-3.13,0.03,8.60,-40.46,-40.46,-40.46
-3.82,-0.34,8.68,-44.66,-44.66,-44.66
-4.19,-0.43,8.78,-45.64,-45.64,-45.64
-4.17,-0.64,8.83,-45.22,-45.22,-44.80
-3.86,-0.91,8.54,-42.84,-42.84,-42.84
-4.28,-1.67,8.60,-40.18,-39.41,-39.41
-3.92,-2.12,8.81,-31.01,-31.01,-29.96
-3.16,-1.98,8.73,-24.99,-24.99,-24.15
-3.65,-1.92,8.54,-17.99,-17.08,-17.08
-3.87,-1.68,7.99,-10.15,-10.15,-9.45
-4.23,-1.45,7.75,-6.09,-6.09,-4.27
-4.94,-1.15,7.38,-1.82,-1.82,-1.54
-5.94,-1.07,7.21,-1.26,-1.26,-1.26
-6.63,-0.99,7.00,-0.77,-0.77,-0.63
-6.86,-0.77,6.66,0.49,0.49,0.49
-7.65,-0.44,6.14,0.42,0.14,0.14
-8.15,-0.18,5.93,-1.61,-3.50,-3.50
-8.24,-0.11,5.50,-6.37,-6.79,-7.70
-8.94,-0.02,4.84,-13.23,-13.65,-13.65
-9.09,0.09,4.41,-17.64,-17.64,-17.64
-9.15,0.10,4.02,-22.61,-22.96,-22.96
-9.24,0.19,3.84,-25.13,-25.41,-26.32
-9.40,0.31,3.65,-28.21,-28.56,-28.56
-9.45,0.56,3.56,-31.50,-31.78,-31.78
-9.48,0.45,3.64,-33.60,-33.60,-33.60
-9.60,0.35,3.60,-33.11,-32.97,-32.97
-9.80,0.22,3.51,-31.22,-30.87,-30.87
-9.87,0.21,3.52,-28.00,-25.90,-25.90
-9.30,0.43,3.59,-21.56,-21.56,-21.56
-8.82,0.68,3.44,-19.81,-19.81,-19.81
-8.82,0.84,3.43,-19.60,-19.60,-19.60
-8.78,1.08,3.29,-21.00,-21.00,-21.00
-8.67,1.15,3.30,-23.80,-23.80,-24.43
-8.64,1.01,3.18,-27.58,-27.58,-28.28
-9.03,0.78,2.98,-30.31,-30.31,-31.01
-9.44,0.51,2.80,-33.39,-33.67,-33.67
-9.37,0.57,2.78,-34.30,-34.30,-34.23
-9.10,0.62,2.53,-34.51,-34.51,-34.51
-9.39,0.73,2.21,-33.95,-33.95,-33.95
-9.51,0.86,1.90,-32.69,-32.69,-32.69
-9.27,1.25,1.49,-32.20,-31.85,-31.85
-9.17,1.62,0.92,-30.73,-30.03,-30.03
-9.25,2.04,0.33,-27.93,-27.93,-27.09
-9.40,2.30,-0.24,-23.59,-23.59,-23.59
-9.50,2.39,-0.76,-18.69,-17.71,-15.89
-9.84,2.62,-1.21,-9.03,-9.03,-8.05
-10.05,2.78,-1.55,-1.33,-1.33,0.35
-10.24,3.06,-1.93,6.02,6.02,6.02
-10.28,3.33,-2.31,8.19,8.05,8.05
-10.10,3.63,-2.57,5.60,4.83,4.83
-9.96,3.57,-2.81,-1.82,-1.82,-2.45
-9.92,3.29,-2.75,-6.16,-6.16,-6.16
-9.88,3.11,-3.05,-10.50,-10.50,-10.85
-9.83,3.02,-3.11,-13.09,-13.09,-13.65
-9.51,2.84,-3.15,-14.42,-14.42,-14.56
-9.47,3.03,-3.12,-16.45,-16.45,-16.45
-9.29,3.20,-3.21,-21.91,-21.91,-21.91
-9.00,3.12,-3.24,-24.29,-24.36,-24.36
-8.71,2.76,-3.30,-22.68,-22.68,-21.98
-8.74,2.60,-3.29,-18.55,-17.08,-17.08
-8.71,2.93,-3.23,-13.58,-13.58,-12.74
-8.57,3.20,-3.15,-11.06,-11.06,-10.71
-8.66,3.54,-3.14,-10.43,-10.43,-10.43
-8.42,4.14,-3.12,-13.72,-13.72,-14.42
-8.37,4.31,-2.98,-20.02,-20.02,-20.72
-8.21,4.12,-2.78,-26.32,-26.32,-26.32
-8.11,4.04,-2.62,-28.77,-29.68,-29.68
-8.16,4.16,-2.39,-32.83,-33.81,-33.81
-8.05,4.26,-2.50,-36.12,-36.75,-36.75
-7.77,4.32,-2.56,-38.36,-38.78,-38.78
-7.49,4.28,-2.52,-39.83,-39.97,-39.97
-7.53,4.12,-2.41,-41.86,-41.86,-41.86
-7.47,3.92,-2.54,-42.98,-42.98,-42.98
-7.34,3.95,-2.78,-40.88,-40.88,-40.88
-7.36,4.19,-2.92,-38.71,-38.01,-38.01
-7.64,4.47,-3.02,-36.40,-36.40,-35.91
-7.60,4.68,-3.21,-34.02,-34.02,-33.11
-7.45,4.80,-3.35,-29.89,-29.89,-29.89
-7.31,5.16,-3.61,-23.03,-23.03,-23.03
-7.07,5.58,-3.79,-19.53,-19.53,-18.69
-7.25,6.42,-4.08,-17.36,-17.36,-17.36
-7.21,6.59,-4.03,-18.55,-18.55,-18.55
-6.62,6.73,-4.02,-17.78,-17.78,-17.78
-5.82,6.95,-4.04,-18.41,-18.41,-18.41
-5.05,6.95,-4.01,-21.00,-21.91,-21.91
-4.98,6.58,-4.02,-23.73,-23.73,-23.73
-5.41,6.20,-3.67,-21.98,-21.98,-21.98
-5.99,5.88,-3.61,-16.45,-16.45,-16.45
-6.10,5.73,-3.84,-7.77,-7.77,-7.77
-5.67,6.34,-4.64,0.63,2.03,2.03
-5.86,7.21,-5.23,14.35,15.68,15.68
-6.24,7.62,-5.65,23.03,27.44,27.44
-5.62,9.38,-7.59,59.85,59.85,59.85
-6.09,9.42,-7.97,68.04,69.09,69.09
-6.47,9.12,-7.90,73.92,74.62,74.62
-6.56,8.48,-7.62,76.93,77.07,77.07
-6.82,7.69,-7.25,76.16,76.16,75.88
-6.93,6.95,-7.27,74.41,74.41,74.27
-7.08,6.40,-7.56,75.11,75.88,75.88
-7.04,5.93,-7.80,77.70,77.98,77.98
-7.55,5.68,-8.08,78.54,78.54,78.75
-8.30,5.41,-8.22,78.96,78.96,78.96
-8.56,5.15,-7.93,77.35,76.86,76.86
-8.58,4.96,-7.50,69.65,68.46,68.46
-8.39,4.71,-7.18,60.76,59.36,56.70
-8.12,4.51,-6.65,49.49,47.88,47.88
-7.77,4.15,-5.83,35.14,33.53,33.53
-7.67,3.84,-5.49,24.36,23.17,20.51
-7.64,3.44,-4.91,14.56,13.65,13.65
-7.32,3.04,-4.40,5.88,5.18,5.18
-7.25,2.75,-3.79,2.10,2.10,2.10
-7.00,2.54,-3.20,0.63,0.63,0.63
-7.26,2.14,-2.43,1.47,1.68,1.68
-7.77,1.60,-1.72,5.18,5.18,5.18
-7.82,1.16,-1.29,8.96,10.43,10.43
-7.81,0.89,-0.74,15.33,15.33,15.33
-8.19,0.64,-0.23,23.24,24.22,24.22
-9.11,0.70,0.06,37.17,37.17,37.17
-9.10,0.97,0.10,40.04,40.04,40.04
-9.28,0.88,0.21,41.72,41.72,41.72
-9.85,0.73,0.55,45.08,45.43,45.43
-10.09,0.95,0.72,43.82,43.82,43.40
-9.67,0.78,0.84,40.46,40.46,40.11
-9.32,0.40,0.98,39.20,38.92,38.99
-9.16,0.02,1.09,38.57,38.57,38.71
-8.94,-0.25,1.08,38.99,38.99,38.99
-8.48,-0.37,1.24,39.62,39.62,39.83
-8.16,-0.46,1.46,40.95,41.58,41.86
-8.19,-0.64,1.83,44.10,44.10,44.45
-8.17,-0.78,2.05,46.13,46.13,46.13
-7.97,-0.81,2.23,46.90,46.90,46.90
-8.16,-0.81,2.37,47.60,47.60,48.02
-8.67,-1.18,2.70,49.63,49.63,49.63
-8.82,-1.39,2.94,56.00,56.00,56.00
-9.04,-1.27,3.17,61.74,61.74,61.74
-9.14,-1.02,3.34,64.33,64.33,64.33
-8.85,-1.07,3.64,66.57,66.78,66.78
-8.36,-1.16,3.85,69.23,70.98,70.98
-8.29,-0.99,4.03,73.92,75.04,75.04
-7.81,-0.19,4.26,73.22,73.22,73.22
-7.58,0.15,4.43,65.80,65.80,63.77
-8.15,-0.07,4.67,59.36,59.36,59.36
-8.83,-0.62,5.21,58.59,58.87,58.87
-8.77,-0.90,5.50,63.77,64.68,64.68
-7.93,-0.40,5.63,70.00,70.00,70.00
-6.67,0.99,5.60,66.71,61.88,61.88
-5.85,1.42,5.69,51.17,48.93,44.38
-5.95,0.90,5.73,34.79,33.25,33.25
-6.91,-0.37,5.89,26.67,27.02,27.02
-8.55,-1.24,6.17,33.53,35.00,35.00
-8.87,-1.26,6.44,43.05,46.83,46.83
-8.00,0.01,6.59,50.12,50.12,50.12
-7.06,1.24,6.61,43.96,37.87,37.87
-5.49,2.15,7.03,18.62,18.62,18.62
-5.50,1.75,7.42,-8.05,-8.05,-8.05
-5.63,1.09,7.47,-20.16,-20.16,-20.16
-6.09,0.28,7.82,-25.83,-25.69,-25.69
-6.36,-0.19,8.22,-21.98,-21.21,-21.21
-5.82,-0.07,8.82,-16.94,-16.52,-16.52
-4.97,0.29,8.93,-15.89,-16.87,-16.87
-3.81,0.58,8.85,-22.82,-22.82,-22.82
-3.60,-0.53,9.79,-37.31,-37.31,-37.31
-3.98,-1.05,10.02,-33.11,-33.11,-32.20
-3.95,-1.05,10.14,-29.82,-29.33,-29.33
-3.62,-1.04,9.93,-27.30,-26.39,-26.39
-3.57,-1.57,9.86,-22.82,-22.82,-21.35
-3.11,-1.79,9.61,-16.38,-14.63,-14.63
-2.69,-1.85,9.38,-8.89,-8.89,-7.00
-2.49,-1.84,9.14,-1.54,-1.54,0.14
-2.12,-1.67,8.59,6.02,6.02,8.12
-2.84,-1.74,8.17,15.75,16.94,16.94
-3.31,-1.69,7.66,28.00,28.00,28.00
-4.19,-1.80,7.42,41.51,41.51,44.59
-4.71,-1.13,6.64,52.36,53.13,53.13
-5.17,-0.65,5.89,55.23,55.23,55.16
-5.50,-0.34,5.41,54.53,54.11,53.90
-6.57,-0.22,4.95,52.50,52.50,51.31
-7.99,-0.28,4.95,46.55,46.55,46.55
-8.36,-0.35,4.36,41.86,41.86,41.72
-8.66,-0.11,3.78,41.86,42.07,42.07
-9.34,0.27,3.48,41.37,41.37,39.97
-9.75,0.30,3.25,37.38,37.38,36.75
-9.93,0.24,2.89,33.53,32.97,32.97
-10.01,0.49,2.45,29.26,29.26,28.84
-10.10,0.48,2.19,26.74,26.25,25.97
-10.43,0.29,1.96,25.90,26.39,26.81
-10.94,0.23,1.79,30.45,31.08,31.08
-11.15,0.27,1.68,36.75,36.75,36.75
-10.83,0.47,1.50,41.58,41.58,42.14
-10.46,0.76,1.33,45.36,45.36,45.36
-9.91,1.14,1.22,45.64,45.64,45.64
-9.83,1.30,1.16,44.80,44.59,44.59
-9.68,1.07,1.24,44.59,44.59,44.59
-9.41,1.09,1.18,47.25,47.25,47.60
-9.43,1.29,1.32,48.65,48.93,49.00
-10.16,1.50,0.92,49.63,49.63,49.63
-10.31,1.71,0.90,50.61,50.61,50.54
-10.11,1.98,1.06,48.58,48.58,48.58
-9.94,2.23,1.11,43.68,43.68,43.68
-9.90,2.31,0.95,38.01,38.01,38.01
-9.64,2.59,0.77,28.42,28.42,28.42
-9.41,2.75,0.79,21.28,18.48,18.48
-9.31,2.68,0.95,10.08,10.08,7.35
-8.66,1.13,0.20,-5.74,-6.16,-6.16
-8.69,1.08,-0.63,-8.12,-8.33,-8.33
-8.93,0.70,-1.14,-10.78,-10.78,-10.92
-9.08,0.05,-2.34,-12.95,-12.95,-12.95
-9.38,-0.21,-3.17,-13.44,-13.23,-13.23
-9.65,-0.33,-3.74,-12.74,-12.32,-12.18
-9.97,-0.74,-4.11,-10.85,-9.87,-9.31
-10.35,-1.30,-4.31,-5.39,-3.29,-2.03
-10.13,-1.37,-4.48,4.48,4.48,7.84
-9.44,-0.84,-4.82,12.18,12.18,13.09
-8.56,-0.08,-5.28,12.39,12.39,12.04
-7.99,-0.16,-5.54,7.14,6.51,6.51
-7.59,-0.63,-5.72,3.92,3.92,3.92
-7.10,-0.78,-6.14,4.41,3.99,3.99
-7.32,-1.06,-6.39,3.29,3.08,3.08
-7.74,-1.40,-6.65,3.36,3.99,3.99
-7.87,-1.69,-7.14,6.16,7.84,7.84
-8.12,-1.84,-7.58,12.46,12.46,12.46
-8.80,-1.73,-7.91,23.87,23.87,23.38
-7.83,-1.90,-7.39,-26.81,-26.81,-26.81
-7.53,-2.07,-7.40,-33.32,-35.07,-36.05
-7.41,-2.18,-7.46,-40.32,-40.32,-42.63
-8.35,-2.22,-8.10,-50.26,-50.26,-49.84
-8.77,-2.48,-7.88,-47.25,-46.55,-46.55
-9.26,-2.88,-7.27,-39.06,-39.06,-35.14
-9.65,-3.00,-6.68,-28.00,-28.00,-23.94
-9.74,-2.49,-6.41,-17.29,-17.29,-17.29
-9.19,-1.78,-6.01,-16.03,-16.03,-16.03
-8.48,-1.30,-5.67,-18.83,-20.16,-20.16
-8.29,-0.81,-5.02,-26.39,-26.39,-26.39
-8.32,-0.51,-4.60,-35.98,-37.24,-37.24
-8.31,-0.37,-4.31,-49.56,-49.56,-50.75
-8.48,-0.46,-4.08,-56.14,-57.61,-58.38
-8.94,-0.81,-3.67,-60.20,-60.27,-60.27
-9.15,-1.08,-3.32,-58.17,-58.17,-57.68
-9.17,-1.20,-3.20,-54.88,-53.34,-52.57
-9.40,-1.52,-2.73,-45.50,-45.50,-45.50
-9.50,-1.05,-2.08,-18.34,-16.03,-16.03
-8.73,0.13,-0.65,-12.18,-12.18,-12.18
-8.75,0.22,-0.22,-14.56,-15.61,-15.61
-8.73,0.06,0.56,-20.65,-20.65,-20.65
-8.86,-0.24,0.84,-19.74,-19.18,-19.18
-9.07,-0.26,0.97,-17.85,-17.29,-17.29
-9.11,-0.17,1.20,-16.45,-16.31,-16.31
-9.07,-0.05,1.33,-15.05,-14.84,-14.84
-9.00,-0.05,1.42,-13.93,-13.86,-13.86
-9.02,0.06,1.57,-14.00,-14.00,-14.00
-9.32,0.03,1.66,-14.21,-14.07,-14.07
-9.54,0.11,1.67,-13.86,-13.93,-13.93
-9.72,0.20,1.89,-13.93,-13.93,-14.00
-9.87,0.40,1.92,-14.49,-14.49,-14.70
-10.06,0.57,1.86,-17.29,-17.29,-17.57
-10.12,0.53,1.90,-18.27,-18.27,-18.48
-9.87,0.44,2.02,-18.48,-18.48,-18.48
-9.62,0.57,1.98,-19.18,-19.18,-19.25
-9.59,0.65,2.12,-20.16,-20.16,-20.16
-9.77,0.51,2.31,-20.30,-19.95,-19.95
-9.85,0.27,2.46,-18.55,-18.55,-18.13
-9.74,0.16,2.50,-16.80,-16.80,-16.80
-9.56,0.11,2.66,-15.33,-15.33,-15.33
-9.37,0.14,2.66,-15.12,-15.12,-14.91
-8.99,0.21,2.83,-16.38,-16.45,-16.45
-8.57,0.28,3.04,-18.34,-18.34,-18.69
-8.42,0.45,3.17,-20.93,-20.93,-21.14
-9.05,0.29,3.56,-21.21,-21.21,-21.21
-9.79,-0.37,3.91,-15.96,-14.63,-14.63
-9.74,-0.55,4.06,-0.49,-0.49,-0.49
-9.11,-0.14,3.98,6.86,6.86,7.70
-8.31,0.39,4.02,10.15,10.22,10.22
-7.86,0.75,4.30,7.21,7.21,7.21
-8.46,0.43,4.65,3.43,3.43,3.08
-8.97,-0.23,4.83,3.29,3.29,3.71
-9.17,-0.29,4.92,6.02,6.72,6.72
-7.68,0.36,5.85,15.75,15.89,15.89
-7.35,0.58,6.29,15.61,15.61,15.40
-7.00,0.84,6.17,12.04,12.04,11.20
-6.70,0.91,5.97,6.16,6.16,6.16
-7.89,0.33,6.42,-6.23,-6.23,-6.23
-8.94,-0.19,6.51,-4.76,-4.76,-4.76
-9.48,-0.33,6.40,-3.99,-4.13,-4.13
-9.23,-0.18,6.19,-4.76,-4.69,-4.69
-8.46,0.15,6.28,-5.04,-5.04,-5.60
-7.55,0.23,6.75,-8.05,-8.33,-8.33
-7.11,-0.19,6.92,-10.43,-10.43,-10.36
-7.36,-0.78,6.76,-9.24,-9.24,-8.96
-7.26,-1.01,6.62,-5.81,-5.81,-5.81
-5.90,-0.84,6.80,-2.80,-2.80,-2.24
-5.15,-0.96,7.33,4.62,4.62,4.62
-4.74,-1.01,7.69,10.71,11.83,11.83
-3.48,0.10,8.44,12.53,11.90,11.90
-3.68,-0.09,8.71,8.82,6.93,6.93
-3.27,0.05,9.04,3.99,3.36,2.24
-3.16,0.09,8.97,-3.22,-3.22,-3.99
-3.31,-0.03,8.93,-9.38,-9.38,-10.01
-3.65,-0.22,9.00,-14.91,-14.91,-14.91
-3.86,-0.25,8.85,-18.76,-18.76,-18.76
-4.14,-0.19,8.82,-22.96,-22.96,-22.96
-4.32,-0.11,8.39,-26.32,-26.32,-26.32
-4.78,-0.27,8.24,-27.72,-27.72,-27.72
-5.74,-0.78,8.25,-26.18,-26.18,-26.18
-5.84,-0.92,8.18,-23.73,-23.73,-23.73
-5.62,-1.07,8.17,-21.84,-21.84,-21.84
-5.09,-0.93,8.14,-19.81,-19.81,-19.81
-4.44,-0.55,7.91,-19.18,-19.18,-19.18
-4.47,-0.65,7.70,-19.67,-19.39,-19.39
-4.72,-0.99,7.62,-16.66,-15.89,-15.89
-5.03,-1.01,7.37,-9.52,-9.52,-8.54
-5.20,-0.63,6.83,-3.78,-3.78,-2.87
-5.30,-0.31,6.40,-2.38,-2.38,-2.31
-5.37,-0.29,6.13,-0.77,-0.77,-0.35
-6.05,-0.34,5.99,2.17,2.17,2.17
-6.66,-0.09,5.77,6.86,7.35,7.35
-7.10,0.38,5.51,9.59,10.43,10.43
-7.72,0.88,5.00,11.48,11.41,11.41
-8.33,1.39,4.77,9.52,7.35,7.35
-8.85,1.77,4.43,3.43,2.66,0.70
-9.58,2.47,4.01,-4.97,-6.37,-9.17
-10.36,3.04,3.42,-21.63,-21.63,-23.59