aX,aY,aZ,gX,gY,gZ
-10.42,-0.48,0.13,11.41,11.41,10.99
-10.09,-0.45,0.15,10.01,10.01,10.01
-9.93,-0.33,0.22,8.47,7.49,7.49
-9.72,-0.53,0.53,4.13,4.13,3.22
-9.42,-0.75,0.63,1.89,1.89,1.89
-9.07,-0.67,0.6,2.59,2.59,2.66
-9.16,-0.57,1.03,1.33,1.33,1.33
-9.03,-0.96,1.2,-0.84,-0.84,-0.84
-8.94,-1.22,1.12,-0.63,-0.63,-0.63
-8.6,-1.12,1.04,0.56,0.56,0.56
-8.68,-0.66,0.93,-2.59,-2.59,-2.59
-8.76,-0.79,1.04,-7.07,-7.07,-7.63
-8.8,-1.2,1.16,-11.41,-11.41,-11.41
-8.69,-1.22,0.87,-10.64,-10.64,-10.64
-8.64,-0.85,0.39,-10.99,-10.99,-10.99
-9,-0.65,0.29,-15.12,-15.12,-15.12
-9.14,-0.89,0.55,-17.57,-17.57,-17.5
-9.13,-1.23,0.69,-16.03,-15.75,-14.98
-9.15,-1.51,0.57,-13.3,-12.95,-12.95
-9.1,-1.9,0.49,-11.55,-11.34,-11.34
-8.97,-2.06,0.45,-8.68,-8.68,-7.98
-9.17,-2.08,0.45,-3.57,-3.08,-3.08
-9.13,-2.24,0.23,-0.14,0.14,0.14
-9.12,-2.33,-0.22,1.68,1.68,1.96
-9.32,-2.17,-0.22,4.83,4.83,4.83
-9.5,-1.64,-0.2,9.24,9.24,9.24
-9.47,-1.44,-0.31,7.28,7.28,7.28
-9.76,-1.6,-0.45,4.34,3.78,3.78
-9.84,-1.53,-0.36,2.8,2.8,2.66
-9.33,-1.11,-0.41,1.33,0.98,0.98
-8.86,-1.02,-0.47,-4.97,-4.97,-5.81
-8.81,-1.31,-0.58,-9.1,-9.94,-10.08
-8.73,-1.61,-0.51,-9.87,-9.87,-9.87
-8.44,-1.35,-0.43,-6.44,-6.44,-6.44
-8.15,-1.22,-0.69,-6.51,-6.51,-6.51
-9.16,-1.56,-1.12,-6.58,-6.58,-6.58
-9.48,-1.55,-1.29,-6.44,-6.44,-6.44
-9.71,-1.63,-1.17,-8.05,-8.05,-8.05
-9.88,-1.69,-1.17,-6.86,-6.02,-6.02
-10.1,-1.51,-0.97,-2.52,-2.52,-1.4
-10.02,-1.48,-0.96,1.68,1.96,1.96
-9.6,-1.69,-0.93,3.22,3.22,3.5
-9.63,-1.61,-0.76,6.51,6.51,7.07
-9.49,-1.49,-0.66,9.66,9.66,9.94
-9.3,-1.52,-0.35,10.43,10.43,10.43
-9,-1.67,-0.38,9.1,8.68,8.68
-8.62,-1.67,-0.42,7.63,7.63,7.28
-8.51,-1.32,-0.8,4.48,4.48,4.48
-8.54,-1.3,-0.84,-1.75,-2.45,-2.45
-8.74,-1.35,-1.13,-7,-7.63,-7.63
-9.07,-1.41,-1.22,-9.59,-9.59,-9.59
-9.49,-1.19,-1.12,-11.76,-11.97,-11.97
-9.51,-1.01,-0.95,-14.56,-15.05,-15.05
-9.49,-1.08,-0.77,-17.43,-17.92,-17.92
-9.61,-1.23,-0.95,-20.16,-20.16,-20.09
-9.75,-1.34,-0.91,-18.69,-18.69,-18.34
-9.48,-1.45,-0.73,-17.22,-17.22,-17.01
-9.12,-1.61,-0.69,-16.73,-16.73,-16.73
-9.14,-1.61,-0.9,-15.68,-15.68,-15.47
-9.14,-1.58,-0.6,-13.37,-13.37,-13.37
-9.09,-1.43,-0.25,-10.92,-10.92,-10.71
-8.75,-1.38,-0.11,-10.64,-10.64,-10.57
-8.79,-1.36,-0.46,-10.92,-10.92,-10.92
-9.03,-1.48,-0.29,-10.99,-10.92,-10.92
-9.17,-1.52,0.26,-10.36,-10.36,-10.36
-9.2,-1.23,0.47,-9.66,-9.66,-9.66
-9.15,-1.2,0.24,-10.71,-10.85,-10.85
-9.53,-1.33,0.35,-11.55,-11.62,-11.62
-9.92,-1.52,0.7,-10.92,-10.08,-10.08
-9.8,-1.57,0.99,-8.47,-8.05,-7.42
-9.53,-1.3,0.84,-5.88,-5.88,-5.81
-9.22,-1.31,0.74,-6.37,-6.37,-6.37
-9.02,-1.6,0.84,-6.93,-6.79,-6.79
-9.02,-1.45,0.74,-5.67,-5.67,-5.25
-8.83,-1,0.68,-3.57,-3.57,-3.57
-8.89,-0.94,0.64,-5.95,-5.95,-5.95
-9.52,-1.31,0.43,-10.43,-10.15,-10.15
-9.88,-1.18,0.65,-8.26,-8.26,-8.05
-10.04,-1.19,0.73,-8.4,-8.47,-8.54
-10.16,-1.4,0.8,-9.1,-9.1,-8.96
-10.38,-1.49,0.9,-7.49,-7.49,-7.07
-9.82,-2.01,0.82,-2.73,-2.73,-2.31
-9.38,-2.21,1.07,-0.14,-0.14,0.21
-9.56,-2.08,1.11,3.57,3.57,3.57
-9.5,-1.9,1.1,5.81,6.58,6.58
-9.32,-1.87,0.97,7.42,7.42,7.7
-9.59,-2.02,1.44,7.35,7.35,7.35
-9.72,-1.89,1.08,7.7,7.77,7.77
-9.81,-1.66,0.98,7.98,7.98,8.05
-9.83,-1.65,1.13,6.79,6.79,6.79
-9.84,-1.9,1.13,5.32,5.32,5.32
-9.9,-1.78,0.88,5.25,5.32,5.32
-9.82,-1.47,0.81,5.39,4.83,4.83
-10.02,-1.37,0.79,3.36,3.01,3.01
-10.37,-1.53,0.91,-0.42,-0.7,-0.7
-10.16,-1.64,0.67,-1.47,-1.61,-1.61
-9.69,-1.7,0.47,-1.82,-1.96,-1.96
-9.6,-1.95,0.42,-3.29,-3.43,-3.43
-9.96,-2.07,0.54,-4.2,-4.2,-4.2
-9.98,-2.11,0.76,-3.57,-3.57,-3.36
-9.46,-2.01,0.48,-0.7,-0.7,-0.35
-9.37,-1.87,0.61,0.63,0.63,0.49
-9.8,-1.88,0.75,0.84,0.84,0.7
-10.05,-1.9,0.9,1.4,1.4,1.61
-9.89,-1.84,0.82,2.24,2.24,2.24
-9.72,-1.65,0.79,1.26,1.26,1.26
-10.02,-1.61,1.1,-1.19,-1.54,-1.54
-9.94,-1.81,1.35,-3.15,-3.15,-3.15
-9.35,-2.05,1.35,-3.01,-2.87,-2.87
-8.97,-1.94,1.25,-2.38,-2.38,-2.38
-8.72,-1.84,1.24,-3.22,-3.22,-3.5
-8.67,-2.3,1.6,-4.76,-4.76,-4.76
-9.06,-2.68,1.7,-3.71,-3.71,-3.71
-9.48,-2.42,1.72,-2.03,-2.03,-2.03
-9.51,-2.13,1.41,-2.73,-2.73,-2.73
-9.75,-2.07,1.4,-3.92,-4.34,-4.34
-10.6,-2.34,1.77,-5.46,-5.46,-5.67
-11.22,-2.34,1.79,-6.37,-6.37,-6.65
-11.04,-2.34,1.62,-8.68,-8.68,-8.68
-10.65,-2.43,1.55,-10.92,-10.92,-10.92
-10.65,-2.72,1.8,-11.55,-11.41,-11.2
-10.27,-3.01,1.69,-6.3,-6.3,-6.3
-9.87,-3.03,1.41,-3.78,-3.78,-3.78
-9.71,-2.91,1.44,-0.7,-0.35,-0.35
-9.85,-2.59,1.62,2.38,2.38,2.52
-9.79,-2.48,1.45,2.66,2.66,2.52
-9.82,-2.39,1.49,2.24,2.31,2.31
-9.94,-2.38,1.67,3.01,3.22,3.22
-10.37,-2.23,1.79,3.57,3.64,3.64
-10.48,-2.18,1.95,2.24,2.24,1.89
-10.24,-2.44,2.07,0.77,0.77,0.63
-9.85,-2.75,2.2,0.56,0.56,0.56
-9.57,-2.92,2.25,1.19,1.33,1.33
-9.36,-3.04,2.29,1.89,2.03,2.38
-9.18,-3.17,2.3,3.01,3.08,3.08
-9.26,-3.05,2.3,4.55,4.69,4.69
-9.61,-2.76,2.36,5.67,5.67,5.67
-9.82,-2.66,2.37,5.46,5.39,5.39
-9.97,-2.55,2.27,4.69,4.69,4.69
-9.91,-2.37,2.12,4.06,4.06,4.06
-9.35,-1.98,1.61,-0.28,-0.56,-0.56
-9.19,-2.01,1.46,-2.17,-2.31,-2.31
-9.12,-1.99,1.32,-4.13,-4.13,-4.27
-8.94,-2.06,1.26,-5.18,-5.6,-5.6
-9.04,-2.11,1.22,-5.95,-5.95,-6.09
-9.18,-2.28,1.2,-5.88,-5.88,-5.95
-9.38,-2.38,1.24,-5.04,-5.04,-4.76
-9.6,-2.37,1.21,-3.78,-3.36,-2.94
-9.71,-2.48,1.16,-1.61,-1.61,-0.84
-9.92,-2.55,1.12,0.63,0.63,0.91
-10.27,-2.57,1.14,3.15,3.64,3.85
-10.59,-2.54,1.26,5.32,5.95,6.09
-10.62,-2.63,1.27,7.56,7.84,7.84
-10.89,-2.56,1.24,9.1,9.17,9.24
-11.52,-2.31,1.26,8.61,8.61,7.77
-11.35,-2.57,1.24,6.51,6.51,6.3
-11.11,-2.76,1.12,6.72,6.72,6.93
-11.2,-2.73,1.01,8.19,8.47,8.61
-11.81,-2.22,1.05,8.4,8.4,8.4
-11.37,-2.28,1,7.7,7.7,7.91
-10.98,-2.45,0.99,8.75,8.75,9.59
-10.52,-2.55,1.11,11.13,11.48,11.48
-10.06,-2.8,1.3,15.05,15.61,15.61
-9.68,-2.84,1.38,19.81,20.51,20.51
-9.48,-2.72,1.41,23.38,23.94,23.94
-9.73,-2.27,1.55,26.6,26.6,26.6
-10.21,-2.01,1.64,25.55,25.2,25.2
-9.97,-2.12,1.42,23.03,23.03,23.03
-9.83,-2.05,1.29,21.14,21.14,21.14
-9.73,-2.01,1.41,19.32,19.32,19.32
-10.2,-1.83,1.5,16.59,15.96,15.96
-10.33,-1.88,1.32,12.11,12.11,12.11
-9.92,-1.9,1.23,10.78,10.78,10.64
-9.3,-1.76,1.06,10.01,10.01,9.66
-9.67,-1.51,1.33,6.23,6.23,6.23
-10.05,-1.73,1.49,1.12,1.12,0.7
-9.77,-1.92,1.26,0.49,0.49,1.05
-9.37,-1.94,1.1,2.66,2.66,2.66
-9.32,-1.84,1.05,1.96,1.96,1.96
-9.69,-1.8,1.17,0.28,0.28,0
-9.61,-2,1.07,0.42,0.42,0.42
-9.64,-1.84,1.13,3.85,3.85,3.85
-9.99,-1.57,1.04,3.85,3.85,3.85
-10.48,-1.4,0.91,1.75,1.26,1.26
-10.15,-1.58,0.69,-0.35,-0.35,-0.28
-9.66,-1.78,0.62,0.56,0.56,1.05
-9.65,-1.82,0.5,1.61,1.61,1.61
-9.14,-2.18,0.37,3.71,3.71,3.71
-8.82,-2.48,0.32,8.33,10.22,10.22
-8.93,-2.27,0.44,16.8,16.8,17.71
-9.17,-1.93,0.17,20.3,20.3,20.3
-8.8,-2.3,0.09,20.3,20.3,20.3
-8.75,-2.46,0.11,22.96,24.08,24.08
-8.8,-2.01,0.31,27.3,27.3,27.72
-8.63,-1.53,0.18,27.02,26.46,26.46
-8.33,-1.73,0.1,21.14,21.14,20.65
-8.35,-2.02,0.26,19.25,19.25,19.25
-8.34,-1.93,0.08,17.15,17.15,17.15
-8.29,-1.86,-0.02,12.95,12.95,12.18
-8.57,-1.91,-0.03,5.04,5.04,5.04
-9.04,-1.77,0.01,2.66,2.1,2.1
-9.33,-1.51,-0.02,1.12,1.12,0.63
-9.38,-1.3,0.03,-1.61,-1.61,-2.52
-9.51,-1.37,0.19,-5.39,-5.39,-6.3
-9.36,-1.74,0,-8.82,-8.82,-8.82
-9.44,-1.8,-0.19,-12.39,-12.39,-12.39
-9.51,-1.65,-0.13,-14.42,-14.42,-14.77
-9.41,-1.75,-0.04,-16.38,-16.38,-16.38
-9.12,-2.34,-0.45,-18.83,-18.9,-18.9
-9.12,-2.34,-0.7,-17.01,-17.01,-15.82
-9.2,-1.97,-0.67,-11.06,-11.06,-9.52
-9.01,-1.81,-0.79,-5.25,-4.69,-4.69
-9.03,-1.8,-0.78,0,0.56,0.56
-9.04,-1.71,-0.79,4.69,4.69,5.32
-8.81,-1.46,-0.73,8.54,8.54,8.54
-9.47,-1.34,-0.64,7.49,7.49,7.49
-9.47,-1,-0.67,9.38,9.38,9.52
-9.27,-1.11,-0.6,8.4,8.4,8.12
-9.19,-1.44,-0.58,6.44,6.44,6.44
-9.2,-1.27,-0.83,8.12,8.12,8.12
-8.93,-1.09,-0.72,8.54,8.54,8.54
-8.95,-0.99,-0.61,5.88,5.88,5.88
-8.91,-1.27,-0.72,1.47,1.47,1.47
-9.24,-1.13,-0.71,1.05,0.98,0.98
-9.24,-1.03,-0.62,-0.21,-0.56,-0.98
-9.26,-1.09,-0.48,-4.2,-5.32,-5.32
-9.34,-1.33,-0.52,-9.17,-9.17,-9.17
-9.32,-1.26,-0.57,-11.34,-11.34,-11.83
-8.91,-1.27,-0.76,-14.28,-14.28,-14.28
-8.96,-1.52,-0.75,-18.13,-18.41,-18.41
-9.11,-1.67,-0.58,-18.62,-0.28,-17.71
-9.08,-1.55,-0.59,-15.54,-15.54,-14.14
-8.76,-1.4,-0.49,-12.46,-12.46,-12.53
-8.57,-1.44,-0.44,-13.65,-13.65,-13.65
-8.46,-1.48,-0.03,-12.67,-12.74,-12.74
-8.77,-1.26,0.13,-12.67,-12.81,-12.81
-8.79,-1.34,0.01,-13.3,-13.3,-13.51
-8.71,-1.69,0.16,-12.95,-12.95,-12.95
-8.73,-1.76,0.59,-11.97,-11.97,-11.76
-9.33,-1.41,0.87,-10.64,-10.64,-10.64
-9.31,-1.2,1.04,-9.45,-9.38,-9.38
-9.82,-1.23,0.71,-8.33,-8.33,-8.33
-10.25,-0.97,0.92,-3.5,-3.08,-3.08
-9.65,-1.06,0.87,-1.75,-1.47,-1.47
-9.7,-1.26,0.74,-1.47,-1.4,-1.4
-9.86,-1.37,0.6,-0.84,-0.84,-0.84
-9.93,-1.24,0.71,0.28,0.21,0.21
-9.11,-1.4,0.85,0.14,0.14,0.14
-8.9,-1.77,1.01,-1.05,-1.05,-1.05
-9.27,-1.57,0.91,0.14,0.14,0.14
-9.15,-1.52,1.01,1.68,1.68,1.68
-9.51,-1.36,1.13,-0.42,-0.7,-0.98
-9.72,-1.35,1.2,-1.47,-1.61,-1.61
-9.77,-1.34,1.38,-3.99,-4.34,-4.34
-10.07,-1.33,1.36,-7.49,-7.84,-7.84
-10,-1.45,0.88,-10.78,-11.2,-11.2
-9.68,-1.64,0.73,-14,-14.21,-14.21
-9.85,-1.74,1.09,-16.03,-16.31,-16.31
-9.97,-1.87,1.09,-18.06,-18.48,-18.76
-9.74,-2.06,0.63,-19.74,-19.74,-19.95
-9.51,-2.28,0.67,-19.11,-19.11,-18.69
-9.58,-2.48,0.81,-15.4,-15.4,-14.91
-9.84,-2.39,0.62,-10.08,-10.08,-9.45
-10.39,-2.15,0.61,-6.02,-6.02,-5.53
-10.83,-2.04,0.88,-3.57,-2.94,-2.94
-10.96,-2.02,0.94,-1.33,-1.33,-0.7
-10.93,-1.79,0.45,3.92,3.92,3.92
-10.28,-1.9,0.51,5.95,5.95,5.95
-9.63,-2.01,0.37,7.35,7.35,7.49
-9.34,-1.94,0.37,8.89,9.38,9.52
-9.05,-1.79,0.33,10.08,10.01,9.94
-8.9,-1.67,0.56,9.03,9.03,8.89
-8.82,-1.79,0.6,7.42,7.42,7.42
-8.92,-1.83,0.59,7.14,7,7
-9.81,-1.39,1,5.74,5.39,5.39
-10.02,-1.46,1.12,0.77,0.77,0.35
-10.21,-1.63,1.1,-3.78,-3.78,-3.78
-9.96,-1.85,0.95,-7.21,-7.21,-7.21
-10.11,-1.96,1.24,-8.89,-8.89,-8.89
-10.48,-1.99,1.43,-9.52,-9.87,-9.87
-10.45,-2.07,1.42,-10.29,-10.29,-10.36
-10.2,-2.17,1.02,-10.15,-10.15,-10.15
-9.91,-2.12,0.94,-9.87,-9.87,-9.87
-10.24,-1.88,1.25,-8.89,-8.89,-8.89
-10.64,-1.88,1.31,-7.49,-7.21,-7.21
-10.74,-1.99,1.33,-5.39,-5.11,-5.11
-10.45,-1.99,1.36,-3.08,-2.8,-2.8
-10.12,-1.9,1.43,0.14,0.14,1.47
-9.61,-1.91,1.54,3.78,3.78,4.34
-9.33,-2.09,1.64,8.47,8.47,8.82
-9.21,-2.19,1.74,10.08,10.08,10.5
-9.54,-2.14,2.04,10.64,10.64,10.57
-9.88,-2.09,2.25,9.17,9.17,9.03
-10.11,-2.03,2.27,7.49,7.49,6.37
-10.37,-1.84,2.23,3.08,3.08,3.08
-10.53,-1.66,2.22,-3.22,-3.22,-3.22
-10.6,-1.65,2.25,-6.65,-6.65,-7.77
-10.53,-1.78,2.2,-10.36,-10.64,-10.64
-10.27,-1.89,1.93,-13.37,-13.37,-13.58
-9.97,-1.99,1.76,-13.79,-13.79,-13.72
-9.68,-1.96,1.58,-13.02,-13.02,-12.95
-9.52,-1.89,1.47,-11.76,-11.48,-11.48
-9.51,-1.97,1.43,-10.36,-10.36,-10.22
-9.73,-2.1,1.54,-7.28,-7.28,-6.86
-10.27,-2.01,1.54,-4.62,-4.62,-4.62
-10.54,-1.9,1.48,-2.45,-2.03,-1.54
-10.77,-1.8,1.4,0.35,0.35,0.35
-10.97,-1.77,1.32,3.15,3.57,3.57
-11.28,-1.68,1.42,6.58,6.58,6.58
-11,-1.97,1.3,9.38,9.73,9.73
-10.82,-2.06,1.25,11.62,11.62,11.62
-10.79,-2.23,1.34,13.3,13.58,13.58
-10.58,-2.47,1.47,14.98,15.26,15.26
-10.5,-2.46,1.68,16.73,16.8,16.8
-10.35,-2.08,2.19,14.07,14.07,14.07
-10.39,-1.59,2.43,4.06,3.36,3.36
-10.04,-1.74,2.42,-1.12,-1.12,-1.12
-9.89,-1.77,2.25,-4.06,-4.06,-4.06
-9.82,-1.82,2.22,-6.44,-6.65,-7.21
-9.47,-2.18,2.14,-7.84,-7.77,-7.77
-9.48,-2.35,1.94,-5.74,-5.32,-5.32
-9.99,-2.21,1.78,-3.71,-3.43,-3.01
-10.52,-2.24,1.71,-2.59,-2.59,-2.59
-10.06,-2.65,1.34,-0.28,-0.28,-0.28
-10.03,-2.89,1.11,3.57,4.34,4.34
-10.3,-2.59,0.92,8.05,8.05,8.26
-10.4,-2.4,0.92,9.1,9.1,9.31
-9.88,-2.76,0.57,11.41,11.41,11.41
-9.94,-2.79,0.45,17.5,17.5,17.5
-10.21,-2.55,0.55,20.93,21.49,21.49
-9.94,-2.45,0.51,24.5,25.34,25.76
-9.56,-2.2,0.27,28.14,28.14,29.26
-9.53,-1.85,0.1,30.45,30.45,30.38
-10.21,-1.52,0.35,28.63,28.63,28.35
-10.4,-1.82,0.44,26.81,26.81,26.81
-9.85,-2.14,0.18,27.86,27.86,27.86
-9.27,-2.17,-0.03,28.84,28.98,28.98
-9.24,-1.64,0.07,27.58,25.69,25.69
-9.8,-1.34,0.17,21.49,20.58,18.62
-9.54,-1.75,0.1,12.25,12.25,12.25
-9.24,-1.97,-0.15,7.07,7.07,7.07
-9.37,-1.77,-0.04,4.83,4.41,4.41
-9.41,-1.8,-0.14,-1.54,-1.54,-1.54
-8.89,-2.02,-0.27,-4.83,-4.76,-4.76
-8.31,-2.22,-0.33,-3.92,-3.64,-3.64
-8.13,-2.47,-0.49,-1.89,-1.89,-1.89
-8.48,-2.54,-0.67,-0.63,-0.28,-0.28
-8.96,-2.35,-0.44,3.01,3.57,3.57
-8.56,-2.16,-0.57,6.37,7.7,7.7
-8.5,-2.12,-0.56,9.24,9.52,9.87
-8.76,-2.1,-0.38,10.85,10.99,11.76
-8.87,-1.98,-0.4,14.14,14.7,15.54
-8.39,-1.75,-0.73,17.43,17.43,17.36
-8.43,-1.45,-1.02,13.51,13.51,13.51
-8.75,-1.51,-1,9.59,9.03,9.03
-8.68,-1.62,-0.98,6.65,6.65,6.79
-8.33,-1.68,-1.27,6.16,6.16,6.16
-8.39,-1.58,-1.47,4.76,4.55,4.55
-8.56,-1.65,-1.2,4.13,4.13,4.2
-8.7,-1.73,-0.97,6.16,6.16,6.16
-8.83,-1.54,-0.87,9.1,9.1,9.1
-9.13,-1.47,-0.95,7.49,7.49,7.49
-9.49,-1.43,-0.66,5.25,5.25,4.62
-9.51,-1.4,-0.3,3.29,3.15,3.15
-9.44,-1.23,-0.32,1.61,1.61,1.61
-9.2,-1.25,-0.34,-1.89,-3.15,-3.15
-9.04,-1.37,-0.25,-5.88,-5.88,-6.51
-8.64,-1.7,-0.37,-7.56,-7.56,-7.56
-8.59,-1.87,-0.1,-7.21,-7.21,-7.21
-8.57,-1.81,-0.18,-6.51,-6.51,-6.51
-8.63,-1.67,-0.23,-6.51,-6.51,-6.51
-9.08,-1.6,0.1,-6.3,-6.23,-6.23
-9.25,-1.61,0.08,-6.09,-6.02,-6.02
-9.29,-1.67,-0.2,-7.07,-7.07,-7.28
-9.5,-1.86,-0.3,-8.75,-8.75,-8.75
-9.6,-1.9,-0.2,-9.52,-9.52,-9.45
-9.23,-1.86,-0.31,-9.17,-9.17,-9.17
-9.01,-2.05,-0.63,-9.45,-9.45,-9.45
-9.19,-2.16,-0.48,-8.26,-8.26,-8.26
-9.39,-2.01,-0.39,-5.32,-5.32,-5.32
-9.23,-1.69,-0.52,-0.98,-0.98,-0.98
-9.15,-1.68,-0.42,-0.7,-0.7,-0.7
-9.1,-1.99,-0.18,-1.33,-1.4,-1.4
-9.34,-2,0.01,-1.19,-1.19,-1.19
-9.01,-1.98,-0.14,-1.75,-1.75,-1.75
-8.74,-1.89,-0.06,-3.78,-3.78,-3.78
-8.63,-1.93,0.14,-7.91,-7.91,-7.91
-8.92,-1.73,0.16,-8.47,-8.47,-8.47
-8.74,-1.48,0.22,-8.54,-8.54,-8.54
-8.3,-1.68,0.41,-10.08,-10.15,-10.15
-8.38,-1.92,0.79,-10.43,-10.15,-10.15
-8.64,-1.8,0.95,-9.24,-8.96,-8.75
-8.31,-1.9,0.62,-8.4,-8.4,-8.4
-8.17,-2.11,0.71,-9.52,-9.66,-9.66
-8.96,-2.06,1.11,-9.24,-8.96,-8.96
-9.67,-1.73,0.81,-7.63,-6.86,-6.86
-9.22,-1.7,0.32,-6.37,-6.58,-6.58
-9.22,-1.68,0.48,-7.63,-8.26,-8.26
-9.75,-1.71,0.75,-9.24,-9.52,-9.52
-9.73,-1.99,0.74,-9.52,-9.45,-9.45
-9.8,-2.03,0.87,-8.68,-8.68,-8.54
-9.76,-1.88,1.03,-8.61,-8.61,-8.61
-9.71,-1.5,1,-9.17,-9.17,-9.17
-9.39,-1.77,0.89,-12.25,-12.25,-12.25
-9.26,-2.27,0.98,-13.02,-12.74,-12.74
-9.68,-2.19,1.36,-10.71,-10.71,-9.94
-9.47,-1.97,0.88,-8.12,-7.91,-7.91
-9.09,-2.26,0.65,-8.4,-8.61,-8.61
-9.22,-2.74,1.19,-7.14,-7.14,-7.14
-9.97,-2.39,1.66,-1.68,-1.68,-1.68
-9.87,-1.89,1.12,2.17,2.17,2.17
-9.79,-1.75,0.91,-0.77,-0.77,-0.77
-10.37,-1.95,1.16,-3.78,-3.78,-3.78
-10.9,-1.9,1.11,-3.78,-3.78,-3.78
-10.62,-1.72,0.97,-3.92,-3.92,-4.06
-10.11,-1.83,0.64,-6.72,-6.72,-6.72
-10.27,-2.13,0.91,-8.12,-7.91,-7.91
-10.41,-2.18,0.94,-5.53,-5.53,-5.04
-9.8,-2.2,0.48,-1.75,-1.75,-1.75
-9.04,-2.05,0.38,-1.33,-1.33,-1.33
-9.37,-1.87,0.67,-0.63,-0.63,-0.63
-9.91,-2.04,0.89,0.98,0.98,0.98
-10.08,-2.15,1,3.43,3.64,3.64
-9.99,-1.98,1.07,4.34,4.48,4.48
-10.11,-1.62,1.25,4.06,4.06,3.85
-10.17,-1.6,1.18,2.24,1.54,1.12
-10.24,-1.82,1.26,-0.98,-1.61,-2.03
-10.05,-2.17,1.25,-2.73,-2.8,-2.8
-9.52,-2.53,1.22,-1.89,-1.68,-1.68
-9.23,-2.69,1.14,-0.98,-0.98,-0.91
-9.3,-2.8,1.24,-1.05,-1.05,-1.12
-9.45,-2.9,1.46,-0.98,-0.98,-0.84
-9.43,-2.74,1.36,1.33,1.33,1.82
-8.96,-2.62,1.2,4.13,4.13,4.13
-9.19,-2.47,1.36,4.97,4.83,4.83
-9.93,-2.42,1.65,3.71,3.71,3.71
-10.46,-2.38,1.98,3.15,3.15,3.08
-9.46,-2.16,1.73,-0.49,-0.49,-0.7
-9.3,-2.3,2.02,-2.24,-2.24,-2.24
-9.54,-2.42,2.21,-3.29,-3.29,-3.29
-9.58,-2.44,2.22,-4.48,-5.04,-5.04
-9.42,-2.52,2.04,-6.86,-6.86,-7.56
-9.35,-2.62,1.83,-10.29,-10.29,-11.13
-9.49,-2.63,1.91,-13.02,-13.37,-13.37
-9.96,-2.66,2.26,-14.91,-14.84,-14.84
-10.41,-2.6,2.38,-15.54,-15.54,-15.54
-10.33,-2.6,2.25,-16.59,-16.73,-16.73
-10.21,-2.47,2.24,-17.92,-17.99,-17.99
-10.05,-2.4,2.19,-18.13,-17.99,-17.99
-10,-2.41,2.17,-17.64,-17.15,-17.15
-10,-2.57,2.13,-15.61,-15.61,-15.61
-10.03,-2.7,2.04,-12.53,-12.32,-12.32
-9.98,-2.78,1.99,-10.22,-8.89,-8.89
-9.89,-2.86,1.8,-6.3,-5.81,-4.69
-9.93,-2.87,1.68,-0.84,-0.84,-0.28
-10.14,-2.68,1.59,3.15,3.15,3.57
-10.32,-1.24,1.6,6.79,6.79,6.79
-10.3,-2.36,1.46,7.98,7.98,7.91
-10.18,-2.35,1.35,8.82,8.82,8.82
-10.02,-2.35,1.27,9.03,9.03,9.03
-10.13,-2.25,1.32,8.89,8.89,8.89
-10.45,-2.2,1.4,8.19,8.19,8.19
-10.54,-2.35,1.43,7.42,7.56,7.56
-10.7,-2.24,1.35,6.44,6.44,6.37
-10.91,-2.04,1.33,2.38,2.38,1.89
-10.7,-2.17,1.36,-0.42,-1.05,-1.4
-10.4,-2.38,1.48,-2.03,-2.03,-2.03
-10.26,-2.55,1.61,-2.03,-2.03,-2.03
-10.49,-2.48,1.71,-2.31,-2.31,-2.31
-10.25,-2.66,1.87,-2.73,-2.59,-2.59
-10.05,-2.86,1.93,-0.91,-0.56,-0.56
-10.37,-2.69,2.2,3.36,3.71,3.71
-11.18,-2.3,2.35,4.2,3.92,3.92
-10.71,-2.63,2.29,3.01,3.01,3.01
-10.19,-2.83,2.13,4.2,4.2,4.34
-9.97,-2.88,2.02,5.74,5.74,5.74
-9.93,-2.8,2.07,5.53,5.53,5.53
-9.81,-2.79,2,4.9,4.9,4.9
-9.71,-2.79,2.14,4.2,4.13,3.92
-9.81,-2.79,2.13,3.64,3.5,3.5
-10.28,-2.57,2.16,1.96,1.68,1.68
-10.67,-2.56,2.17,-0.07,-0.28,-0.28
-10.38,-2.75,1.88,0.07,0.07,0.42
-10.05,-2.79,1.64,2.1,2.73,2.73
-10.2,-2.74,1.69,4.2,4.55,4.55
-10.23,-2.73,1.64,5.74,5.74,6.58
-9.71,-2.99,1.32,12.53,12.53,12.53
-9.49,-2.76,1.24,19.67,19.67,20.44
-10.15,-2.53,1.27,22.4,22.4,22.4
-9.71,-2.64,1.02,24.08,24.08,24.08
-9.18,-2.53,0.89,25.13,24.85,24.85
-9.27,-2.08,1.03,22.05,22.05,21.35
-9.21,-1.9,0.9,12.32,12.32,12.32
-9.37,-1.77,0.87,9.03,8.26,8.26
-9.41,-1.8,0.7,1.05,1.05,0.63
-9.21,-1.87,0.67,-1.61,-1.61,-1.82
-8.41,-2.03,0.5,-2.24,-2.24,-2.38
-8.63,-2.09,0.49,-4.27,-4.27,-4.27
-9.04,-2.26,0.49,-6.02,-6.16,-6.16
-8.88,-2.36,0.55,-5.18,-5.18,-4.9
-8.44,-2.53,0.31,-2.8,-2.8,-2.8
-8.98,-2.34,-0.04,4.41,4.83,4.83
-9.12,-2.25,-0.18,6.51,6.51,6.44
-9.65,-2.47,-0.28,5.67,5.67,5.67
-9.62,-2.68,-0.34,6.65,6.65,7.28
-9.52,-2.52,-0.34,12.04,12.04,12.04
-10.1,-2.01,0,12.67,12.67,12.67
-9.74,-2.19,-0.05,12.18,12.39,12.39
-9.04,-2.44,-0.15,12.18,12.18,12.18
-9.2,-2.12,-0.12,10.29,10.29,10.29
-9.36,-1.91,-0.41,5.74,5.74,5.74
-9.32,-1.84,-0.27,1.4,1.4,1.4
-8.85,-2.13,-0.39,0.56,0.56,0.21
-8.35,-2.43,-0.56,0.84,0.84,0.84
-8.68,-2.35,-0.52,4.97,5.53,5.53
-8.83,-2.15,-0.33,8.82,9.17,9.17
-8.78,-2.11,-0.22,10.08,10.08,10.08
-8.68,-2.24,-0.26,9.1,9.1,9.1
-8.59,-2.12,-0.45,9.03,9.03,9.03
-8.28,-1.91,-0.66,8.05,8.05,8.05
-8.21,-1.79,-0.52,5.11,3.78,3.78
-8.41,-2.02,-0.31,0.21,-0.7,-0.7
-8.75,-2.15,-0.44,-1.96,-1.82,-1.82
-8.79,-2.05,-0.52,-0.91,-0.91,-0.63
-8.6,-2.12,-0.35,-0.49,-0.49,-0.63
-8.5,-2.35,-0.36,-0.63,-0.63,-0.63
-8.73,-2.12,-0.44,4.55,4.55,4.55
-8.58,-2.21,-0.54,1.82,1.82,1.33
-8.8,-2.35,-0.9,-0.56,-0.84,-0.91
-9.53,-2.13,-0.52,-0.49,-0.49,-0.28
-9.58,-1.7,-0.57,0.07,0.07,-0.21
-9.72,-1.25,-0.83,-7.84,-7.84,-7.84
-9.53,-1.45,-0.77,-8.75,-8.75,-8.75
-9.54,-1.36,-0.13,-8.12,-8.26,-8.26
-9.27,-1.42,0.06,-9.24,-10.5,-10.5
-9.12,-1.89,0.25,-13.02,-13.3,-14
-9.2,-2.28,0.03,-13.3,-13.3,-12.95
-9.21,-2.15,0.25,-9.66,-9.66,-9.17
-8.86,-2.09,0.28,-7.56,-7.56,-7.42
-8.6,-2.23,0.11,-7.77,-7.77,-7.77
-8.63,-2.48,0.01,-7.14,-7,-7
-8.99,-2.12,0.12,-5.04,-5.04,-5.04
-8.94,-1.94,-0.13,-5.6,-5.95,-5.95
-9.11,-2,-0.42,-8.61,-8.89,-8.89
-9.4,-2.03,-0.44,-10.08,-10.43,-10.43
-9.53,-1.93,-0.05,-10.5,-10.5,-10.78
-9.53,-1.99,-0.09,-11.2,-11.2,-11.41
-9.14,-2.16,-0.68,-12.95,-12.95,-13.16
-9.47,-1.99,-0.51,-13.02,-13.02,-13.02
-9.66,-2.05,0.1,-11.13,-11.13,-10.71
-9.44,-2.38,0.4,-9.17,-9.17,-9.03
-8.85,-2.79,0.15,-7.42,-7.42,-7.42
-9.17,-2.45,-0.3,-3.36,-3.36,-3.36
-9.23,-2.03,-0.19,1.05,1.33,1.33
-8.87,-1.9,0.22,1.33,0.91,0.91
-8.51,-2.26,0.42,-0.21,-0.28,-0.42
-9.32,-2.09,0.76,0,0.28,0.28
-9.36,-1.89,0.67,1.26,1.26,1.26
-8.93,-2,0.63,-0.14,-0.42,-0.42
-9.32,-1.93,0.82,-1.26,-1.4,-1.4
-9.54,-1.56,0.6,-1.61,-1.61,-1.61
-9.62,-1.21,0.49,-3.64,-3.85,-3.85
-9.47,-1.51,0.75,-6.44,-6.44,-6.86
-9.02,-2.23,1.2,-8.33,-8.33,-8.33
-8.99,-2.33,1.3,-5.46,-5.46,-5.46
-8.99,-1.84,1.24,-3.08,-3.08,-3.08
-8.62,-1.92,1.01,-4.34,-4.34,-4.34
-8.69,-2.22,1.21,-5.67,-5.53,-5.53
-8.9,-2.27,1.49,-3.99,-2.38,-2.38
-8.62,-2.36,1.41,0.84,1.47,1.47
-8.46,-2.67,1.23,6.09,6.37,6.37
-8.93,-2.93,1.45,8.47,8.89,8.89
-9.48,-2.24,1.9,12.11,12.11,12.67
-9.55,-1.84,1.62,14.42,14.42,14.42
-9.39,-1.7,1.21,11.06,11.06,11.06
-9.42,-2.21,1.17,6.79,6.79,5.81
-9.92,-2.5,1.27,5.46,5.67,5.67
-10.1,-2.14,1.18,6.86,6.86,6.86
-9.93,-2.12,0.99,3.64,3.64,3.64
-10.22,-2.53,1.47,-0.07,-0.07,-0.07
-10.63,-2.76,1.87,1.19,2.17,2.8
-10.52,-2.74,1.67,5.18,5.53,5.81
-10.33,-2.21,1.31,5.32,4.48,4.13
-10.18,-2.37,1.43,1.33,1.33,1.33
-10.38,-2.98,1.68,1.05,1.05,1.54
-10.1,-3.18,1.85,3.85,4.2,4.2
-9.6,-2.78,1.46,3.99,3.99,3.99
-9.6,-2.53,1.5,0.63,0.35,0.35
-9.91,-2.81,1.75,-0.63,-0.63,-0.63
-10.06,-3.05,2.1,1.75,1.75,1.75
-9.88,-2.72,1.81,4.62,4.62,4.62
-9.46,-2.39,1.45,3.85,3.36,3.36
-9.19,-2.4,1.32,2.66,2.73,2.73
-9.6,-2.67,1.76,3.99,3.99,4.13
-9.71,-2.74,2.03,6.23,6.23,6.23
-9.63,-2.55,1.93,6.51,6.51,6.51
-9.19,-2.7,1.73,4.9,4.83,4.83
-9.02,-2.75,1.85,5.81,5.81,6.16
-9.23,-2.67,2.12,7.7,7.7,8.33
-9.72,-2.42,2.4,8.54,8.54,8.54
-9.6,-2.69,2.5,6.44,6.44,6.16
-9.49,-2.85,2.45,4.97,4.97,4.97
-9.35,-2.95,2.49,4.9,4.9,4.9
-9.6,-2.93,2.57,4.2,3.43,3.43
-9.86,-3.01,2.59,0.14,0.14,0.14
-9.99,-3.1,2.71,-3.78,-4.06,-4.06
-9.97,-3.17,2.7,-5.53,-6.37,-6.37
-10.13,-3.18,2.78,-8.12,-8.68,-9.66
-10.41,-3.2,2.99,-12.39,-12.39,-14
-10.53,-3.42,3.17,-17.08,-17.08,-17.43
-10.37,-3.55,3.01,-18.55,-18.55,-18.55
-10.28,-3.62,2.97,-18.27,-18.27,-18.27
-10.27,-3.78,2.95,-17.08,-17.08,-17.08
-10.08,-3.92,2.99,-15.26,-14.28,-14.28
-9.73,-4.07,2.93,-10.22,-10.22,-9.52
-9.45,-4.07,2.86,-4.06,-4.06,-4.06
-9.37,-3.94,2.82,1.96,2.59,2.59
-9.75,-3.4,2.82,10.43,10.43,10.43
-9.93,-3.26,2.79,13.93,13.93,13.93
-10.09,-3.07,2.74,17.99,17.99,17.99
-10.37,-2.68,2.67,18.55,18.55,18.55
-10.51,-2.4,2.52,15.12,14.63,14.63
-10.54,-2.53,2.35,11.9,10.43,10.43
-10.3,-2.83,2.16,8.19,7.84,7.84
-9.63,-3.22,1.81,-0.28,-0.28,-0.28
-9.53,-3.31,1.76,-1.61,-1.61,-1.61
-9.71,-3.26,1.81,-0.98,-0.98,-0.98
-10.23,-3.04,1.95,-1.19,-1.19,-1.19
-10.4,-3.12,1.88,-2.87,-2.87,-2.87
-10.49,-3.21,1.76,-3.71,-3.78,-3.78
-10.56,-3.24,1.67,-4.62,-4.76,-4.76
-10.76,-3.06,1.58,-7,-7.28,-7.28
-10.89,-3.1,1.67,-8.75,-8.75,-8.89
-10.49,-3.35,1.56,-9.45,-9.45,-9.45
-9.98,-3.45,1.41,-7.84,-7.84,-7.84
-9.55,-3.34,1.19,-6.65,-6.65,-6.65
-9.32,-3.56,1.05,-6.65,-6.51,-6.51
-9.38,-3.82,1.12,-4.83,-4.83,-4.83
-9.38,-3.96,1.2,-0.56,-0.07,-0.07
-9.36,-3.73,1.03,3.71,3.71,3.71
-9.49,-3.48,0.94,4.55,4.34,4.34
-9.02,-3.39,0.98,4.34,4.41,4.41
-8.71,-3.5,0.69,6.09,6.09,6.37
-8.78,-3.44,0.63,7.28,7.49,7.56
-9.37,-3.02,0.72,7.21,7.21,6.65
-9.73,-2.67,0.86,5.25,5.25,4.9
-9.63,-2.76,0.56,1.89,1.89,1.54
-9.49,-2.89,0.48,-0.21,-0.21,-0.21
-9.73,-2.74,0.61,-1.82,-2.87,-2.87
-9.44,-2.69,0.47,-4.83,-5.25,-6.23
-8.74,-3.09,0.15,-9.31,-9.73,-9.73
-8.56,-3.21,0.11,-7.07,-7,-7
-8.31,-3.36,-0.33,-5.81,-5.81,-5.81
-8.52,-3.69,-0.51,-4.97,-4.97,-4.62
-8.91,-3.56,-0.21,0.77,0.77,0.77
-8.87,-3.06,-0.22,4.41,5.18,5.18
-8.65,-3.07,-0.46,5.81,5.81,5.67
-9,-3.24,-0.35,6.02,6.02,6.02
-8.73,-3.42,-0.51,9.8,9.8,9.8
-8.91,-2.96,-0.37,13.58,13.58,13.58
-8.3,-2.37,-0.73,3.78,3.78,3.78
-8.37,-2.19,-0.79,0.91,0.7,0.7
-8.42,-2.44,-0.53,-5.39,-6.02,-7.42
-8.85,-2.79,-0.66,-9.73,-9.87,-10.29
-8.9,-2.63,-1.12,-9.73,-9.52,-9.52
-8.56,-2.26,-1.29,-8.54,-8.4,-8.4
-8.28,-2.33,-1.43,-10.29,-10.29,-10.29
-8.43,-2.82,-1.57,-11.48,-11.13,-11.13
-9.1,-2.7,-1.46,-6.65,-6.65,-6.65
-9.07,-2.48,-1.22,2.03,2.03,2.03
-8.51,-2.33,-1.22,3.92,3.92,3.92
-8.38,-2.61,-1.42,3.5,3.5,3.5
-8.63,-2.81,-1.36,5.53,6.58,6.58
-8.65,-2.67,-1.14,9.94,9.94,10.71
-8.2,-2.41,-1.37,10.5,10.5,9.66
-7.82,-2.19,-1.64,6.02,6.02,6.02
-8.92,-1.82,-1.19,2.94,3.08,3.08
-9.13,-1.39,-1.41,1.47,1.47,1.05
-9.44,-1.18,-1.46,-2.94,-2.94,-3.64
-9.47,-1.55,-1.1,-10.29,-10.29,-10.85
-9.44,-2.08,-0.88,-13.58,-13.58,-13.93
-9.26,-2.23,-0.99,-16.03,-16.38,-16.38
-9.16,-2.25,-1.11,-18.62,-19.04,-19.04
-9.25,-2.46,-0.79,-21.63,-21.63,-21.77
-9.26,-2.69,-0.75,-21.07,-20.3,-19.74
-9.33,-2.59,-0.85,-16.24,-16.24,-13.93
-8.98,-2.76,-0.92,-8.96,-8.96,-8.96
-8.88,-2.95,-0.32,-3.64,-3.64,-3.64
-8.84,-2.93,-0.21,0.07,0.07,0.07
-8.63,-2.91,-0.57,4.55,4.55,4.55
-8.56,-2.98,-0.33,6.3,6.3,6.37
-8.75,-3.02,0.03,5.81,5.81,5.81
-9.04,-2.93,0.11,5.25,5.25,5.25
-9.01,-2.77,-0.36,4.83,4.83,4.83
-8.99,-2.52,-0.4,3.78,3.78,3.78
-9.24,-2.33,0.27,0.21,-0.28,-0.28
-9.38,-2.15,0.62,-2.73,-3.08,-3.08
-8.97,-2.46,0.54,-6.3,-6.3,-6.65
-9.02,-2.51,0.89,-8.19,-8.19,-8.47
-9.24,-2.32,1.15,-9.24,-9.24,-9.38
-9,-2.46,0.87,-10.71,-10.71,-10.71
-8.46,-2.74,1.07,-10.36,-10.36,-10.36
-8.44,-2.76,1.31,-7.14,-7.14,-7.14
-8.59,-2.82,1.12,-5.39,-5.18,-5.18
-8.57,-3.01,1.13,-2.94,-2.94,-2.45
-8.62,-2.83,1.66,0.63,0.63,0.63
-8.69,-2.65,1.9,3.99,3.99,3.99
-8.83,-2.75,1.74,3.64,3.29,3.29
-8.93,-3.01,1.37,2.52,2.45,2.45
-9.09,-2.81,1.5,2.66,2.66,2.66
-9.46,-3.18,1.42,-3.43,-3.92,-3.92
-9.63,-3.52,1.26,-6.3,-6.3,-6.3
-9.96,-3.39,1.61,-4.69,-4.34,-4.34
-9.77,-3.07,1.67,-2.59,-2.59,-2.59
-9.47,-3.08,1.36,-4.62,-4.62,-6.02
-9.3,-4.87,1.31,-7.49,-7.49,-7.35
-9.42,-3.87,1.45,-3.57,-3.57,-3.57
-9.43,-3.66,1.28,2.38,2.38,2.38
-9.22,-3.57,1.05,2.94,2.87,2.87
-9.17,-3.73,0.92,2.73,2.73,3.22
-9.68,-3.82,1.36,5.88,5.88,7.21
-9.73,-3.46,1.3,12.25,12.25,12.25
-9.74,-3.17,1.25,11.48,11.48,11.34
-9.95,-3.01,1.41,10.64,10.64,10.64
-10.01,-3.11,1.32,9.17,9.17,8.68
-9.59,-3.3,1.07,6.86,6.86,6.86
-9.29,-3.17,0.8,4.13,4.13,4.13
-9.26,-2.93,0.86,2.31,2.03,2.03
-9.16,-2.9,0.83,0.56,-0.14,-0.14
-9.12,-3.14,0.94,-0.84,-0.84,-0.7
-9.45,-3.19,1.3,0,0.28,0.28
-9.6,-3.15,1.37,1.4,1.4,1.4
-9.45,-3.29,1.28,0.42,0.28,0.28
-9.57,-3.55,1.43,-0.42,-0.42,-0.42
-9.66,-3.79,1.83,0.21,0.21,0.21
-9.81,-3.71,2.09,1.47,1.54,1.54
-9.76,-3.55,1.95,1.19,0.91,0.91
-9.54,-3.65,1.92,0.7,0.98,0.98
-9.66,-3.82,2.2,2.24,2.73,3.36
-9.7,-3.73,2.52,5.46,5.46,5.53
-9.53,-3.55,2.57,5.18,5.18,5.18
-9.39,-3.49,2.48,4.06,3.85,3.85
-9.5,-3.5,2.61,4.2,4.2,4.2
-9.73,-3.36,2.82,6.3,6.09,6.09
-9.56,-3.24,2.7,4.27,3.5,2.94
-9.38,-3.1,2.67,1.05,1.05,-0.07
-9.25,-3.29,2.99,-2.17,-2.17,-2.17
-9.27,-3.35,3.21,-4.06,-4.06,-4.06
-9.08,-3.41,3.2,-5.11,-5.53,-5.53
-8.79,-3.53,3.14,-5.88,-5.88,-5.88
-8.64,-3.71,3.24,-4.41,-4.41,-4.41
-8.67,-3.77,3.22,-3.29,-3.29,-3.29
-8.59,-3.77,3.21,-2.66,-2.66,-2.73
-8.63,-3.67,3.24,-2.94,-2.87,-3.22
-8.91,-3.49,3.3,-3.85,-3.92,-3.92
-9.36,-3.42,3.44,-5.46,-5.67,-5.67
-9.53,-3.42,3.52,-7.14,-7.14,-7.14
-9.42,-3.44,3.55,-8.54,-8.54,-8.54
-9.18,-3.37,3.51,-9.59,-9.59,-9.59
-8.8,-3.42,3.44,-10.57,-10.5,-10.5
-8.59,-3.52,3.39,-10.22,-10.01,-10.01
-8.53,-3.59,3.29,-9.31,-8.96,-8.96
-8.66,-3.72,3.11,-7.49,-7.49,-7.49
-8.94,-3.78,2.92,-4.9,-4.48,-4.48
-9.19,-3.72,2.93,-2.94,-2.1,-2.1
-9.46,-3.58,2.93,-0.91,-0.84,-0.49
-9.56,-3.46,2.79,-0.28,-0.28,-0.28
-9.6,-3.47,2.66,-0.56,-0.56,-0.49
-9.86,-3.43,2.57,-0.21,-0.07,-0.07
-9.99,-3.46,2.48,0.49,0.49,0.49
-9.77,-3.68,2.46,0.98,0.98,0.98
-9.51,-3.8,2.31,2.66,3.01,3.01
-9.61,-3.83,2.28,4.27,4.48,4.48
-10.05,-3.8,2.46,5.46,5.74,5.74
-10.04,-3.84,2.57,7.35,7.77,7.77
-9.93,-3.75,2.47,10.22,10.22,10.64
-9.98,-3.58,2.37,12.18,12.18,12.18
-10.13,-3.38,2.34,10.78,10.78,10.78
-9.98,-3.42,2.27,9.66,9.66,9.59
-9.82,-3.47,2.22,9.24,9.24,9.24
-9.82,-3.44,2.33,9.38,9.31,9.31
-10.1,-3.35,2.28,8.12,7.84,7.84
-10.33,-3.31,2.29,5.18,5.18,4.97
-10.22,-3.49,2.32,4.48,4.48,4.62
-9.9,-3.65,2.29,5.67,6.02,6.23
-9.72,-3.58,2.1,6.16,5.95,5.95
-9.96,-3.42,2.06,3.43,3.43,3.29
-9.48,-3.7,1.84,2.8,2.8,3.01
-8.95,-3.82,1.66,3.99,4.55,4.69
-9.52,-3.73,1.45,2.17,1.96,1.96
-9.56,-3.88,1.39,1.96,2.24,2.59
-9.45,-3.87,1.3,4.13,4.13,4.76
-9.46,-3.41,1.15,5.81,5.81,5.95
-9.69,-3.25,1.09,4.69,4.69,4.55
-9.37,-3.43,0.99,4.69,4.69,4.9
-9.19,-3.49,0.97,6.58,6.58,7.14
-9.28,-3.35,1.04,8.19,8.19,8.05
-9.28,-3.3,0.84,5.74,5.74,5.74
-8.99,-3.66,0.43,3.01,2.45,2.45
-8.94,-3.58,0.39,2.66,2.66,2.66
-9,-3.23,0.29,1.61,1.61,1.61
-9.39,-2.94,0.28,-1.12,-1.12,-1.61
-9.38,-3.13,0.42,-2.87,-2.87,-2.87
-9.22,-3.35,0.26,0.91,0.91,1.61
-9.07,-3.3,0.02,6.58,7.21,7.21
-8.79,-3.18,-0.08,9.66,9.66,9.94
-8.54,-3.58,-0.06,11.55,11.55,11.55
-8.48,-2.94,-0.44,17.22,17.22,16.94
-8.5,-3.13,-0.88,11.27,11.27,11.27
-9,-3.5,-0.87,8.96,9.1,9.1
-9.11,-3.42,-0.81,11.2,12.32,12.32
-8.6,-3.15,-1.01,14.63,14.63,14.7
-8.28,-3.19,-1.32,14.07,14.07,14.07
-8.81,-3.11,-1,15.26,15.26,15.89
-9.2,-3.13,-0.58,18.48,18.48,19.11
-9.37,-2.82,-0.85,15.12,15.12,15.12
-8.96,-2.62,-0.9,10.78,10.78,10.78
-9.1,-2.56,-0.72,6.79,5.25,5.25
-9.49,-2.48,-0.43,0.21,0.21,0.21
-9.27,-2.49,-0.6,-6.37,-6.37,-6.37
-8.88,-2.33,-0.96,-9.1,-9.1,-9.1
-9.06,-2.14,-0.59,-10.85,-10.85,-10.85
-9.7,-2.34,-0.27,-12.46,-12.74,-12.74
-9.7,-2.54,-0.31,-13.86,-13.86,-13.79
-8.95,-2.74,-0.67,-13.79,-13.86,-13.79
-8.74,-2.87,-0.62,-15.82,-15.96,-15.96
-8.38,-3.12,-0.43,-14.77,-14.42,-14.42
-8.2,-3.04,-0.91,-6.02,-6.02,-5.6
-8.11,-2.97,-0.85,-3.01,-3.01,-3.01
-8.01,-3.36,-0.85,0.84,0.84,0.84
-8.3,-3.55,-0.93,3.43,3.85,3.85
-8.21,-3.6,-1.04,6.51,7,7.14
-8.15,-3.36,-1.1,8.19,8.19,8.26
-8.26,-3.21,-1.2,9.03,9.38,9.45
-8.41,-3.13,-1.12,10.01,10.01,10.15
-8.88,-3.03,-0.86,10.08,10.08,9.94
-9.14,-2.59,-0.61,8.68,8.68,7.42
-8.84,-2.3,-0.77,4.13,4.13,1.47
-8.8,-2.44,-0.74,-3.43,-3.43,-4.55
-9.18,-2.51,-0.69,-9.87,-9.87,-10.57
-9.21,-2.51,-0.38,-14,-14.42,-14.42
-8.93,-2.69,-0.27,-17.29,-17.29,-17.29
-8.76,-3.09,-0.44,-18.9,-18.9,-18.9
-9.18,-2.81,0.04,-13.79,-13.79,-13.79
-8.82,-2.59,-0.31,-9.59,-9.45,-9.45
-8.41,-3.24,0.37,-9.1,-9.1,-8.54
-8.97,-3.15,0.45,-5.88,-4.41,-3.57
-8.71,-2.68,0.13,0.49,0.77,0.77
-8.44,-2.51,0.26,1.26,0.98,0.98
-8.93,-2.48,0.9,-0.98,-0.98,-0.91
-9.02,-2.75,0.95,-0.21,-0.21,0.28
-8.8,-2.73,0.58,2.87,2.87,3.5
-8.73,-2.62,0.47,4.76,4.76,4.83
-9.03,-2.68,0.83,4.34,4.34,4.34
-9.28,-2.65,1.05,4.55,4.62,4.62
-9.39,-2.55,0.58,4.41,3.99,3.99
-9.43,-2.27,0.26,2.38,2.03,0.77
-10.22,-2.72,0.44,-12.53,-12.53,-12.53
-10.17,-2.72,0.34,-13.09,-13.09,-13.09
-9.91,-2.68,0.33,-12.25,-11.97,-11.97
-9.5,-2.79,0.26,-12.25,-12.32,-12.32
-9.39,-3.01,0.43,-12.67,-12.32,-12.18
-9.03,-3.09,0.74,-10.78,-10.78,-9.59
-8.59,-2.99,0.56,-7.14,-7.14,-6.09
-8.28,-2.96,0.38,-5.11,-5.11,-4.97
-8.6,-2.94,0.75,-3.64,-3.64,-3.64
-8.74,-3.08,1,-2.03,-2.03,-2.03
-8.91,-3.01,0.92,-0.77,-0.35,-0.35
-8.99,-2.99,0.67,-0.07,0,0
-9.68,-2.81,0.9,-0.63,-0.63,-0.63
-10.14,-2.71,1.08,-0.56,-0.56,-0.42
-9.9,-2.92,0.73,1.19,1.19,1.33
-9.31,-2.98,0.71,2.45,2.52,2.52
-9.17,-3.04,0.99,2.87,2.87,2.8
-9.4,-3.17,1.28,3.01,3.01,3.01
-9.45,-3.31,1.33,4.83,4.83,4.83
-9.17,-3.43,1.32,6.51,6.51,6.72
-9.03,-3.43,1.51,8.05,8.05,8.05
-9.31,-3.47,1.66,8.12,8.12,8.12
-9.37,-3.59,1.64,7.77,7.77,7.77
-9.28,-3.46,1.74,8.05,8.05,8.05
-9.16,-3.22,1.83,8.05,8.05,8.05
-9.32,-3.12,1.84,6.16,6.16,6.16
-9.24,-3.3,1.87,4.34,4.13,4.13
-9.15,-3.33,1.83,3.92,3.92,3.92
-8.97,-3.13,1.64,5.74,5.74,5.74
-8.71,-2.91,1.44,5.18,4.69,4.69
-8.7,-2.86,1.42,2.94,1.82,1.82
-9.19,-2.81,1.75,0.35,0.14,-0.07
-9.18,-2.83,1.81,-0.21,-0.28,-0.28
-8.82,-2.88,1.56,-1.54,-1.54,-1.54
-8.84,-2.96,1.58,-4.2,-5.46,-5.46
-9.24,-3.27,1.94,-6.79,-6.93,-7
-9.44,-3.61,2.28,-7.07,-6.86,-6.72
-9.2,-3.91,2.24,-6.58,-6.44,-6.37
-8.99,-3.97,2.3,-6.3,-6.3,-6.37
-8.88,-4.18,2.56,-4.55,-4.55,-4.55
-9.09,-4.46,2.79,-1.05,-1.05,-1.05
-9.3,-4.3,2.95,4.27,4.27,4.27
-9.49,-3.72,3.04,5.32,5.11,5.11
-9.67,-3.57,3.24,3.5,3.5,3.22
-9.68,-3.8,3.44,2.59,2.52,2.45
-10,-3.81,3.67,2.03,1.82,1.68
-10.06,-3.89,3.76,1.12,0.7,0.63
-9.91,-4.11,3.75,0.07,0.07,0.07
-9.84,-4.3,3.79,0,0,0.14
-9.81,-4.27,3.9,0.84,0.84,0.91
-9.48,-4.24,3.93,0.84,0.84,0.91
-9.09,-4.28,3.93,1.05,1.05,1.19
-8.93,-4.29,3.93,1.54,1.54,1.75
-9.23,-3.94,4.02,1.54,1.54,1.54
-9.6,-3.57,3.92,-1.05,-1.05,-1.05
-9.65,-3.58,3.85,-3.08,-3.64,-3.64
-9.97,-3.62,3.84,-4.97,-4.97,-4.97
-10.3,-3.47,3.77,-6.51,-6.51,-6.51
-10.27,-3.42,3.59,-7.28,-7.07,-7.07
-9.85,-3.65,3.29,-5.81,-5.81,-5.81
-9.46,-3.85,3.1,-1.75,-1.75,-1.05
-9.44,-3.77,2.8,4.55,4.55,4.55
-9.69,-3.58,2.69,7.49,7.49,7.49
-9.83,-3.46,2.54,11.62,11.62,11.62
-9.97,-3.36,2.34,14.28,15.05,15.05
-10.28,-3,2.18,16.17,15.96,15.96
-10.32,-2.8,2.08,14.07,14.07,14.07
-9.79,-2.95,1.72,10.5,10.22,10.22
-9.38,-3.09,1.65,7.98,7.98,7.98
-9.59,-3.13,1.77,4.69,4.27,4.27
-9.89,-3.15,1.92,2.1,1.05,1.05
-9.71,-3.48,1.9,-0.07,-0.21,-0.21
-9.52,-3.58,2,0.98,1.12,1.12
-9.58,-3.33,2.09,1.96,2.03,2.03
-9.83,-3.15,2.24,0.84,0.7,0.7
-9.57,-3.36,2.23,-0.28,-0.21,-0.21
-9.25,-3.56,2.18,0.84,0.84,0.84
-9.31,-3.48,2.31,2.31,2.31,2.38
-9.75,-3.11,2.26,1.47,1.26,1.26
-9.63,-3.35,1.97,-1.75,-1.75,-2.17
-9.52,-3.6,1.86,-3.57,-3.57,-3.43
-9.63,-3.52,1.81,-3.71,-3.71,-3.71
-10.05,-3.28,1.59,-5.18,-5.18,-5.18
-10,-3.45,1.23,-8.26,-8.26,-7.84
-9.26,-3.53,0.95,-3.5,-3.08,-3.08
-9.4,-3.35,0.78,0.28,0.28,0.28
-9.01,-3.14,0.2,4.62,5.32,5.32
-8.59,-3.14,-0.19,10.43,10.43,10.43
-8.8,-2.99,-0.13,14,14,14
-9.33,-2.75,0.08,14.49,14.49,14.49
-9.02,-2.86,-0.11,15.75,15.75,15.75
-8.7,-2.92,-0.31,16.87,16.66,16.66
-8.75,-2.77,-0.52,15.19,14.84,14.84
-9.02,-2.37,-0.34,12.6,12.6,12.25
-8.63,-2.65,-0.56,10.43,10.43,10.43
-8.47,-2.92,-0.62,10.92,10.92,10.92
-8.67,-2.83,-0.49,12.25,12.81,12.81
-8.88,-2.58,-0.51,14.28,14.28,14.28
-8.89,-2.79,-0.74,14.14,14.14,14.14
-8.9,-3.11,-0.79,14.28,14.7,14.7
-9.13,-2.86,-0.68,16.38,16.8,17.36
-9.18,-2.39,-0.82,17.08,16.73,16.73
-9.45,-2.42,-1.01,12.95,12.95,12.11
-9.33,-2.69,-1.14,6.58,6.58,6.58
-9.69,-2.42,-0.92,5.6,5.6,5.11
-9.64,-2.35,-1.12,2.52,2.52,2.52
-9.66,-2.7,-1.45,-5.18,-5.18,-5.18
-9.65,-2.88,-1.52,-6.93,-6.93,-6.93
-9.62,-2.7,-1.38,-3.92,-3.92,-3.92
-9.46,-2.48,-1.29,-1.75,-1.47,-1.47
-9.59,-2.13,-1.16,-1.33,-1.33,-1.33
-9.68,-2.33,-1.16,-0.77,-0.77,-0.77
-9.73,-2.36,-1.02,3.22,3.22,3.22
-9.26,-2.15,-1.07,6.09,6.09,6.02
-8.89,-2.19,-0.94,3.08,3.08,3.08
-9.29,-2.17,-0.69,0,0,0
-9.07,-1.3,-0.86,-5.39,-5.39,-6.72
-8.98,-1.34,-0.87,-10.64,-11.48,-11.48
-8.82,-1.9,-0.67,-17.15,-17.5,-17.5
-8.77,-2.03,-0.63,-18.2,-18.2,-18.06
-8.45,-1.94,-0.65,-17.92,-18.34,-18.34
-7.17,-3.06,-0.76,-21.49,-21.49,-21.49
-7.62,-3.06,-0.63,-16.24,-13.09,-13.09
-7.44,-2.79,-0.61,-7.07,-7.07,-7.07
-7.71,-2.59,-0.4,-3.29,-3.29,-3.29
-8.23,-2.59,-0.81,0.63,1.26,1.26
-9.2,-2.23,-0.78,7.42,8.19,8.19
-9.42,-1.79,-0.68,11.48,11.48,11.48
-9,-1.83,-0.7,8.47,7.63,7.63
-9.08,-2.23,-0.5,2.24,1.54,1.54
-9.49,-2.11,-0.62,-2.38,-2.38,-2.38
-9.34,-1.79,-0.68,-3.64,-3.64,-3.64
-8.44,-1.99,-0.76,-9.1,-9.1,-9.1
-8.29,-2.1,-0.26,-12.18,-12.32,-12.32
-8.62,-2.18,-0.51,-12.46,-12.25,-12.25
-8.77,-1.93,-1,-10.64,-10.36,-10.36
-8.55,-1.88,-0.8,-10.22,-10.22,-10.36
-8.56,-2.18,-0.32,-12.32,-12.32,-12.53
-8.79,-2.38,0.01,-13.37,-13.37,-13.37
-8.89,-2.29,0.02,-12.6,-12.46,-12.46
-8.85,-2.07,-0.25,-11.48,-11.48,-11.41
-8.97,-2.35,0.13,-10.99,-10.99,-10.99
-8.75,-2.65,-0.24,-4.06,-4.06,-3.43
-8.49,-2.31,-0.03,-0.84,-0.56,-0.56
-8.63,-2,-0.3,-0.91,-0.91,-0.98
-8.9,-2.16,-0.58,-2.1,-2.1,-2.24
-10.14,-1.84,-0.04,-0.56,-0.56,-0.56
-10.3,-1.85,-0.2,-4.48,-5.74,-5.74
-10.5,-2.27,0.17,-7.28,-7.28,-7.35
-10.54,-2.54,0.68,-6.23,-6.23,-6.16
-10.19,-2.57,0.43,-6.3,-6.3,-6.3
-9.82,-2.7,0.56,-6.79,-6.79,-6.79
-9.71,-2.94,0.84,-4.97,-4.97,-4.97
-9.51,-2.93,0.86,-1.89,-1.89,-1.89
-9.27,-2.68,0.63,0.35,0.35,0.35
-8.93,-2.66,0.54,0.14,0.14,-0.07
-9.11,-2.94,0.86,-0.49,-0.49,-0.49
-9.42,-3.1,1.2,0.84,0.98,0.98
-9.63,-2.89,0.94,1.89,1.89,2.03
-9.64,-2.57,0.77,1.05,1.05,1.05
-9.92,-2.66,1,-0.91,-0.91,-0.91
-10.1,-2.96,1.19,-3.71,-3.71,-3.71
-10.31,-2.95,1.08,-5.39,-5.39,-5.39
-9.9,-2.83,1.09,-7.35,-7.7,-7.7
-9.68,-2.94,1.21,-9.1,-9.59,-9.59
-9.53,-3.43,1.23,-12.39,-12.6,-12.6
-9.43,-3.61,1.12,-11.69,-11.27,-11.27
-9.21,-3.41,1.14,-9.03,-8.47,-7.42
-8.79,-3.22,1.18,-5.25,-4.62,-4.62
-8.84,-3.13,1.25,-2.45,-2.45,-2.31
-9.37,-2.79,1.16,3.85,3.85,3.99
-9.09,-2.82,1.19,3.57,3.57,3.57
-9.77,-2.72,1.37,2.38,2.38,2.38
-9.9,-2.77,1.34,1.05,1.05,1.05
-9.4,-2.92,1.27,-0.28,-0.77,-0.77
-8.93,-3.09,1.17,-2.38,-2.38,-2.87
-8.95,-3.35,1.32,-3.78,-3.78,-3.64
-9.22,-3.49,1.5,-3.43,-3.43,-3.43
-9.38,-3.51,1.71,-2.31,-2.31,-2.31
-9.29,-3.6,1.72,-1.82,-1.82,-1.82
-9.21,-3.74,1.84,-1.4,-1.4,-1.4
-9.39,-3.88,2.06,-0.35,0.07,0.07
-9.59,-3.83,2.35,0.98,0.98,0.98
-9.74,-3.58,2.34,0.56,0.28,0.28
-9.72,-3.68,2.36,-2.8,-2.8,-3.08
-9.94,-3.73,2.41,-4.27,-4.27,-4.69
-10,-3.55,2.4,-6.79,-6.79,-6.72
-10.34,-3.29,2.48,-6.72,-6.72,-6.72
-10.03,-3.6,2.56,-6.16,-6.16,-6.16
-9.61,-3.82,2.48,-4.55,-4.2,-4.2
-9.48,-3.86,2.36,0.28,0.28,0.84
-9.6,-3.67,2.33,3.29,4.2,4.48
-9.71,-3.54,2.31,6.3,7,7.21
-9.69,-3.62,2.27,8.75,8.89,8.89
-9.95,-3.49,2.3,10.5,10.5,10.57
-10.34,-3.38,2.28,10.78,10.78,10.78
-10.35,-3.35,2.2,10.92,10.92,10.92
-10.25,-3.23,2.19,10.85,10.92,10.92
-10.38,-3.09,2.42,8.4,8.54,8.54
-9.88,-3.11,2.28,9.59,9.59,9.73
-9.74,-2.92,2.11,9.66,9.66,9.52
-9.98,-2.75,2.19,7.77,7.14,7.14
-9.75,-3.13,2.31,5.67,5.53,5.53
-9.7,-3.16,2.36,5.88,5.88,5.81
-9.58,-3.17,2.3,5.04,4.55,4.55
-9.82,-3.1,2.38,1.96,1.96,1.75
-10.26,-3.12,2.54,-0.21,-0.21,-0.21
-10.35,-3.18,2.6,-2.31,-2.31,-2.31
-10.02,-3.42,2.35,-2.8,-2.8,-2.8
-9.85,-3.47,2.25,-3.29,-3.43,-3.43
-9.93,-3.54,2.42,-3.92,-3.92,-3.92
-10.08,-3.67,2.36,-3.29,-2.87,-2.38
-9.73,-3.68,1.86,-0.56,-0.21,-0.21
-9.58,-3.56,1.62,2.8,3.22,3.22
-9.71,-3.47,1.77,5.39,5.39,5.39
-10.3,-3.3,1.87,9.94,9.94,9.94
-10.22,-3.36,1.66,12.04,12.81,12.81
-10.24,-3.01,1.44,14.63,14.63,14.84
-9.88,-2.98,1.01,15.75,15.75,15.75
-9.32,-3.16,0.76,15.33,15.33,15.26
-9.21,-3.19,0.82,15.4,15.4,15.4
-9.45,-3.34,0.91,16.03,16.24,16.24
-9.66,-3.42,0.93,17.15,17.15,17.15
-9.44,-3.51,0.86,19.25,19.46,19.46
-9.25,-3.35,0.69,20.02,19.88,19.88
-9.26,-3.21,0.58,17.15,16.52,16.52
-9.44,-2.93,0.53,13.37,11.48,11.48
-9.03,-2.89,0.36,8.12,8.12,8.12
-8.6,-3.11,0.35,5.74,5.74,5.74
-8.72,-3.17,0.42,4.9,4.9,4.9
-9.21,-2.79,0.42,5.04,5.04,5.04
-9,-2.62,0.27,4.06,4.06,4.06
-8.86,-2.96,0.13,1.96,1.96,1.96
-9.11,-2.99,-0.05,2.24,2.24,2.24
-9.13,-2.6,-0.31,2.59,2.59,2.45
-8.71,-2.46,-0.49,1.54,1.54,1.54
-8.83,-2.84,-0.28,2.66,2.66,2.66
-8.87,-2.63,-0.44,5.53,6.37,6.37
-8.5,-2.52,-0.88,7.98,7.98,8.12
-8.59,-2.79,-0.71,7.98,7.98,7.98
-9.1,-2.79,-0.15,9.1,9.45,9.45
-8.69,-2.85,-0.52,10.64,10.92,10.92
-7.94,-2.86,-1.11,10.78,10.57,10.57
-8.46,-2.53,-1.1,8.75,8.75,8.75
-9.4,-2.17,-0.63,6.44,6.3,6.3
-9.76,-2.05,-0.45,4.9,4.06,4.06
-9.49,-2.03,-0.65,2.45,2.03,0.98
-9.61,-1.87,-0.78,-2.24,-2.24,-2.8
-10.03,-1.99,-0.24,-5.74,-5.74,-6.3
-10.21,-1.92,-0.01,-6.93,-6.93,-7.07
-9.42,-1.98,-0.16,-7.7,-7.7,-7.7
-8.04,-2.14,-0.26,-10.01,-10.85,-10.85
-7.34,-2.33,-0.52,-12.88,-12.88,-13.44
-7.07,-2.74,-0.84,-14.98,-14.98,-14.98
-7.36,-2.74,-0.94,-15.05,-15.12,-15.12
-8.12,-2.32,-1.05,-15.33,-15.33,-15.33
-8.74,-2.32,-0.93,-16.38,-16.38,-16.38
-9.21,-2.63,-0.85,-15.75,-15.26,-15.26
-9.47,-2.73,-0.83,-13.51,-12.81,-12.81
-9.35,-2.66,-0.82,-11.13,-10.99,-10.99
-9.01,-2.91,-0.94,-9.87,-9.66,-9.45
-9.18,-3.01,-0.73,-7.84,-7.49,-7.49
-9.15,-2.92,-0.94,-2.52,-2.52,-2.52
-8.9,-2.83,-0.95,1.47,2.52,2.52
-9.04,-3.06,-0.67,3.99,4.27,4.76
-9.21,-3.04,-0.39,6.79,6.79,7
-9.02,-2.73,-0.43,10.71,10.71,10.71
-8.5,-2.55,-0.41,11.06,11.06,11.06
-8.37,-2.51,-0.14,8.89,8.47,8.47
-8.6,-2.31,-0.07,4.9,4.48,4.48
-8.76,-2.12,-0.09,1.96,1.54,1.54
-8.52,-2.08,-0.06,-0.98,-0.98,-1.54
-8.55,-2.01,0.4,-5.95,-5.95,-5.95
-8.56,-2.14,0.37,-9.31,-9.31,-9.31
-8.66,-2.12,0.08,-11.69,-11.9,-11.9
-8.5,-2.19,0.11,-14.35,-14.35,-14.35
-8.29,-2.39,0.27,-15.96,-16.52,-16.52
-8.49,-2.42,0.54,-17.5,-17.64,-17.64
-8.79,-2.33,0.22,-18.34,-18.34,-18.34
-8.82,-2.33,-0.06,-18.13,-18.06,-18.06
-9.03,-2.16,0.39,-17.22,-17.01,-17.01
-9.34,-2.21,0.61,-16.03,-15.82,-15.82
-9.35,-2.38,0.17,-14.35,-14.35,-14.14
-9.32,-2.29,0,-12.46,-12.46,-11.27
-9.71,-2.03,0.45,-9.94,-9.94,-9.73
-9.85,-2.27,0.73,-9.59,-9.59,-9.66
-9.74,-2.42,0.49,-9.59,-9.59,-9.38
-9.84,-2.23,0.22,-7.35,-7.35,-7.07
-9.94,-1.96,0.27,-6.02,-5.67,-5.67
-9.77,-2.11,0.6,-5.67,-5.67,-5.88
-9.62,-2.38,0.66,-5.67,-5.67,-4.69
-9.33,-2.59,0.84,-1.12,-1.12,-1.12
-9.07,-2.34,1.07,3.36,3.36,3.36
-9.02,-2.35,1.02,3.85,3.85,3.85
-9.2,-2.51,1.19,3.22,3.22,3.22
-9.17,-2.77,1.2,5.32,5.32,5.32
-8.88,-2.7,1.22,9.38,9.38,9.8
-9.07,-2.28,1.08,9.17,9.17,9.17
-9.68,-2.18,1.23,6.02,6.02,6.02
-9.65,-2.7,1.55,4.41,4.41,4.41
-9.72,-2.52,1.83,4.76,4.62,4.62
-9.69,-2.09,1.49,2.8,1.4,1.4
-9.63,-1.93,1.24,-3.36,-3.36,-5.25
-9.4,-2.39,1.31,-9.59,-9.59,-10.01
-9.34,-2.65,1.53,-11.76,-11.97,-11.97
-9.26,-2.64,1.45,-12.04,-11.97,-11.97
-9.07,-2.68,1.01,-12.67,-13.16,-13.16
-9.08,-3.04,0.9,-13.44,-13.37,-12.95
-9.54,-3.17,1.3,-11.06,-10.5,-10.5
-9.65,-2.89,1.36,-5.88,-5.46,-5.46
-9.42,-2.74,0.97,-4.34,-4.34,-4.34
-9.32,-2.88,0.95,-4.69,-4.69,-4.69
-9.41,-3.2,1.15,-3.5,-2.45,-1.82
-9.57,-3.23,1.4,1.61,4.06,4.06
-9.48,-2.93,1.14,6.65,6.93,7.28
-9.31,-2.73,0.54,7.35,7.28,7
-9.72,-2.56,0.78,6.65,6.65,6.86
-10,-2.53,1.37,11.13,11.13,11.13
-9.64,-2.55,1.47,9.8,9.17,9.17
-9.46,-2.68,1.76,7.21,7.21,6.79
-9.37,-3.12,2.01,6.37,6.37,6.37
-9.32,-2.93,2.58,3.29,2.73,2.73
-9.93,-2.72,2.9,-4.2,-4.2,-4.2
-10.1,-2.69,3.15,-9.17,-9.73,-9.73
-9.75,-2.73,3.32,-17.08,-17.08,-19.11
-9.8,-2.82,3.37,-22.33,-22.33,-22.89
-9.62,-3.09,3.3,-26.6,-26.6,-26.88
-9.08,-3.23,3.1,-27.37,-27.37,-27.37
-8.89,-3.25,2.88,-26.6,-26.6,-26.46
-8.95,-3.41,2.88,-25.2,-24.78,-24.78
-9.06,-3.64,2.79,-21.77,-21.77,-21.21
-8.96,-3.74,2.57,-15.33,-15.33,-14.63
-9.09,-3.61,2.5,-10.57,-10.57,-10.08
-9.47,-3.56,2.55,-7.84,-7.84,-7.56
-9.83,-3.5,2.54,-6.65,-6.23,-5.95
-10.15,-3.5,2.42,-4.69,-4.69,-4.69
-10.83,-3.42,2.37,-3.22,-3.15,-3.15
-11.28,-3.37,2.47,-2.66,-2.66,-2.59
-11.36,-3.59,2.49,-1.61,-1.61,-1.33
-11.1,-3.76,2.48,0.14,0.14,0.14
-10.7,-4.02,2.46,3.64,4.06,4.06
-10.43,-4.14,2.54,7.91,8.54,8.54
-10.29,-4.13,2.51,11.55,12.25,13.37
-10,-4.06,2.47,17.22,17.22,17.85
-10.16,-3.72,2.63,22.61,22.61,22.61
-10.5,-3.45,2.7,24.71,24.92,24.92
-10.58,-3.21,2.74,24.85,24.85,24.78
-10.47,-3.11,2.68,22.89,22.89,22.61
-10.28,-3.03,2.66,20.65,20.65,20.65
-10.15,-2.97,2.67,16.52,16.52,16.52
-10.21,-2.68,2.73,13.37,13.37,12.74
-9.82,-2.85,2.92,7.56,7.56,7.56
-9.34,-3.15,2.99,5.74,5.46,5.46
-9.23,-3.3,3.12,5.95,6.3,6.3
-9.24,-3.31,3.15,6.93,6.93,7
-8.6,-3.57,3,7.91,7.91,8.12
-8.31,-3.61,2.9,10.64,11.13,11.13
-8.49,-3.44,2.89,14.07,14.07,14.35
-8.72,-3.32,2.76,14.91,15.19,15.05
-8.7,-3.32,2.51,15.12,14.98,14.98
-8.62,-3.31,2.14,15.12,15.12,15.12
-9.2,-3.06,2,14.28,14.28,14.28
-10.08,-2.83,1.92,9.94,9.94,9.94
-9.9,-3.02,1.68,6.51,6.23,6.23
-9.51,-2.93,1.36,4.9,4.83,4.83
-9.26,-2.95,1.15,3.08,2.73,1.89
-9.26,-3.09,1.15,-0.28,-0.63,-0.63
-9.39,-3.4,1.08,-0.42,-0.07,-0.07
-9.66,-3.37,1.02,2.8,3.08,3.08
-9.88,-2.94,0.97,4.69,5.18,5.18
-10.29,-2.76,0.74,5.25,5.18,4.69
-10.23,-3.06,0.64,4.13,4.34,4.34
-9.81,-3.15,0.46,8.47,9.17,9.17
-9.25,-2.91,0.18,13.44,13.93,13.93
-8.95,-2.79,0.04,15.33,15.33,15.26
-8.82,-2.79,0.1,15.54,15.54,15.54
-8.76,-3.05,0.15,20.58,20.58,20.58
-8.71,-2.81,0.07,25.27,25.27,26.67
-8.74,-2.33,-0.17,28.28,28.28,28.28
-8.74,-2.41,-0.23,23.24,23.24,23.24
-9.08,-2.53,0.05,20.09,20.09,20.09
-9.29,-2.46,0.05,18.83,18.62,18.62
-9.25,-2.05,-0.16,16.59,15.26,14.56
-8.81,-2.02,-0.54,9.8,9.8,6.93
-8.87,-2.43,-0.22,3.57,3.57,3.15
-9.44,-2.74,-0.04,2.52,2.52,2.59
-9.67,-2.5,-0.48,2.03,2.03,1.75
-9.33,-2.28,-0.94,-2.24,-2.24,-2.87
-8.78,-2.78,-0.87,-6.23,-7.21,-7.7
-9.19,-3.27,-0.22,-8.75,-8.75,-8.75
-9.18,-3.39,-0.33,-6.93,-6.86,-6.86
-9.01,-3.08,-0.55,-6.65,-7.28,-7.28
-8.78,-3.01,-0.83,-8.96,-9.8,-10.08
-8.71,-3.6,-0.53,-10.92,-10.92,-10.78
-9.27,-3.42,-0.25,-6.44,-6.44,-6.44
-9.53,-2.78,-0.31,-3.5,-3.5,-3.5
-9.24,-2.53,-0.77,-6.93,-6.93,-6.93
-9.27,-2.9,-0.66,-10.57,-11.06,-11.06
-9.58,-3.37,-0.23,-10.57,-10.57,-9.87
-9.66,-3.04,-0.19,-6.16,-6.16,-6.16
-9.16,-2.71,-0.44,-6.37,-6.37,-6.37
-8.81,-3.01,-0.3,-7.7,-7.7,-7.7
-8.3,-3.67,0,-2.38,-1.19,-1.19
-8.51,-3.44,0.25,4.69,5.88,7.84
-8.46,-2.92,0.25,11.62,12.11,12.11
-8.13,-3.04,-0.09,10.71,10.36,10.36
-7.81,-3.36,-0.2,9.17,9.17,9.24
-8.32,-2.97,0.22,11.48,11.48,11.76
-8.65,-2.41,0.13,11.06,11.06,11.06
-8.48,-2.12,-0.27,3.78,3.78,3.78
-8.27,-2.5,-0.41,-1.33,-1.89,-1.89
-8.74,-2.51,-0.2,-2.31,-2.31,-2.1
-9.38,-2.12,-0.05,-0.77,-0.77,-0.56
-9.41,-1.89,-0.32,-2.8,-2.8,-2.8
-9.01,-2.45,-0.52,-7.63,-7.63,-7.63
-9.16,-2.79,-0.19,-7.07,-6.51,-6.51
-9.26,-2.78,0.24,-3.85,-3.85,-3.29
-8.5,-2.82,-0.75,-2.45,-2.38,-2.38
-9.49,-2.56,-0.1,6.51,6.51,6.51
-9.2,-2.33,-0.35,7.84,7.49,7.49
-9.45,-2.19,-0.69,5.53,5.53,4.55
-9.82,-2.28,-0.42,1.4,1.4,1.4
-9.68,-2.45,-0.03,-0.98,-1.26,-1.26
-9.12,-2.69,-0.1,-2.8,-3.92,-3.92
-9.06,-2.6,-0.41,-5.81,-5.81,-5.81
-8.86,-2.7,-0.41,-6.3,-6.3,-6.23
-8.54,-2.76,-0.18,-4.97,-4.97,-4.97
-8.47,-2.58,-0.25,-3.99,-3.99,-3.85
-8.46,-2.51,-0.29,-4.13,-4.13,-4.13
-8.48,-2.65,-0.1,-5.25,-5.25,-5.25
-8.55,-2.68,0.15,-5.81,-5.81,-5.81
-8.73,-2.6,0.22,-6.37,-6.37,-6.37
-9.17,-2.12,-0.15,-7.21,-7.21,-7.21
-9.28,-2.09,-0.15,-10.22,-10.22,-10.57
-9.38,-2.31,0.44,-14.28,-14.28,-14.28
-9.2,-2.76,0.5,-15.61,-15.61,-15.61
-9.05,-2.88,0.29,-14.56,-14.56,-14.56
-8.96,-2.6,-0.1,-13.72,-13.72,-13.72
-8.79,-2.61,-0.17,-13.86,-14,-14.14
-8.84,-2.95,0.09,-14.28,-14.21,-14.21
-8.81,-3.31,0.51,-11.41,-10.85,-10.85
-9.16,-3.15,0.41,-7.14,-6.72,-6.72
-9.39,-2.87,0.17,-4.9,-4.13,-4.13
-9.35,-2.68,0.12,-2.66,-2.66,-2.66
-9.52,-2.72,0.46,-0.7,-0.42,-0.42
-9.6,-2.81,0.53,0.98,1.54,1.54
-9.2,-2.8,0.41,2.87,2.31,2.31
-9.01,-2.85,0.77,0.98,0.84,0.84
-9.03,-3.03,0.73,-0.84,-0.84,-0.84
-9,-3.36,0.7,-1.26,-1.26,-1.26
-9.25,-3.28,0.78,0.14,0.14,0.14
-9.12,-3.13,0.74,2.1,2.1,2.1
-8.89,-3.2,0.78,2.1,2.03,2.03
-9.09,-3.3,0.93,2.31,2.31,2.45
-9.29,-3.28,0.85,2.87,2.87,2.87
-9.64,-2.85,0.9,2.38,2.38,2.38
-9.86,-2.81,1.06,1.12,0.7,0.7
-10.14,-2.92,1.28,-0.35,-0.35,-0.63
-10.17,-3.15,1.33,-0.7,-0.7,-0.7
-9.64,-3.24,1.23,-0.7,-0.77,-0.77
-9.1,-3.16,1.32,-2.73,-2.73,-2.73
-8.92,-3.32,1.46,-7.14,-7.7,-7.7
-9.24,-3.58,1.62,-10.43,-10.5,-10.5
-9.3,-3.75,1.6,-10.01,-10.01,-9.8
-9.18,-3.48,1.61,-7.49,-7.49,-7.49
-8.65,-3.47,1.56,-7,-7,-7
-8.87,-3.53,1.64,-5.53,-5.53,-5.53
-8.9,-3.8,1.66,-3.01,-2.1,-2.1
-9.15,-3.62,1.83,0.63,1.12,1.89
-9.18,-3.41,1.71,3.78,4.13,4.13
-9.06,-3.4,1.51,6.44,6.79,6.79
-8.83,-3.46,1.58,9.1,9.66,9.66
-9.18,-3.04,1.67,11.48,12.11,12.11
-9.2,-2.63,1.73,12.04,11.69,11.69
-8.94,-2.57,1.67,8.05,8.05,8.05
-8.82,-2.89,1.74,3.57,3.08,3.08
-8.82,-3.09,1.96,1.12,0.98,0.98
-8.92,-3.37,1.75,-6.58,-6.79,-6.79
-8.84,-3.47,2.13,-8.33,-8.68,-8.68
-9.28,-3.2,2.34,-11.83,-12.25,-12.25
-9.44,-3.2,2.31,-17.01,-17.01,-17.64
-9.51,-3.24,2.36,-21.28,-21.7,-21.7
-9.71,-3.39,2.45,-23.1,-23.66,-23.66
-9.82,-3.29,2.7,-24.5,-24.5,-24.5
-9.81,-3.09,2.78,-26.25,-26.25,-26.25
-9.26,-3.15,2.56,-28.21,-28.35,-28.35
-9,-3.34,2.53,-28.35,-28.14,-28
-9.26,-3.54,2.69,-26.88,-26.88,-26.6
-9.43,-3.59,2.56,-25.34,-25.34,-25.27
-9.29,-3.66,2.26,-23.87,-23.87,-23.87
-9.01,-3.76,2.12,-21.77,-21.77,-21.77
-9.25,-3.72,2.17,-19.46,-18.62,-18.62
-9.64,-3.55,2.23,-15.54,-14.49,-14.49
-10.26,-3.33,2.51,-10.92,-10.43,-10.43
-10.14,-3.58,2.62,-4.41,-4.41,-3.64
-10.06,-3.83,2.73,0.35,0.35,2.94
-9.35,-4.15,2.91,15.19,15.19,15.19
-8.91,-4.23,2.79,20.51,20.51,20.51
-9.04,-4.01,2.93,24.5,24.5,24.5
-9.38,-3.68,3.09,24.92,24.78,24.78
-9.4,-3.25,3.08,22.54,22.54,22.54
-9.22,-2.93,2.82,14.91,14.91,14.91
-9.12,-2.65,2.8,8.19,8.19,7.07
-8.98,-2.75,2.87,-0.84,-0.84,-0.84
-9.18,-2.94,3.17,-14.21,-14.63,-14.63
-9.43,-2.89,3.32,-17.57,-18.13,-18.13
-9.14,-3.21,3.3,-18.97,-18.76,-18.76
-9.07,-3.5,3.38,-17.22,-17.22,-16.38
-9.17,-3.67,3.52,-13.3,-13.3,-13.3
-9.03,-3.89,3.7,-7.49,-7.49,-7.49
-9.04,-4.01,3.78,-2.59,-2.59,-2.59
-9.43,-3.94,3.91,3.01,3.01,3.01
-9.57,-4.04,3.96,10.01,10.01,10.01
-9.38,-4.1,3.88,14.14,14.14,14.14
-9.45,-4.04,3.8,18.13,18.13,18.13
-9.92,-3.71,3.66,21.21,21.21,21.21
-10.38,-3.41,3.55,20.58,20.23,20.23
-10,-3.51,3.31,18.2,17.78,17.57
-9.85,-3.45,3.11,16.38,16.38,15.47
-9.73,-3.57,3.04,12.88,12.88,12.88
-9.68,-3.72,2.97,9.17,9.17,9.17
-10.16,-3.53,2.98,6.44,6.44,6.44
-10.85,-3.37,3.11,0.84,0.07,0.07
-10.92,-3.51,3.09,-3.5,-5.04,-5.04
-10.34,-3.95,3.01,-6.37,-6.44,-6.37
-9.7,-4.26,3.03,-4.76,-4.34,-3.36
-9.3,-4.51,3.19,-0.14,0.42,1.68
-9.66,-4.49,3.39,5.25,5.25,5.67
-9.56,-4.7,3.41,7.7,8.75,8.75
-9,-4.94,3.07,12.74,12.74,14.35
-8.52,-4.93,2.89,19.6,19.6,19.6
-8.61,-4.52,2.95,26.04,26.04,26.04
-9.15,-4.13,2.89,27.58,27.58,27.58
-9.27,-4.09,2.79,27.72,27.86,27.86
-9.33,-4.21,2.83,29.05,29.05,29.05
-9.4,-3.96,2.68,30.31,30.38,30.38
-9.52,-3.45,2.55,28.56,27.51,27.51
-9.04,-3.44,2.36,24.57,23.87,23.87
-8.3,-3.89,2.09,20.79,20.65,20.65
-8.61,-3.77,2.56,19.81,19.6,19.6
-8.76,-3.74,2.5,19.25,19.04,19.04
-8.29,-3.65,2.07,18.69,18.34,18.34
-7.96,-3.45,1.54,17.22,16.31,16.31
-8.45,-3.2,1.73,13.65,13.3,12.25
-9.04,-3.12,2.1,10.15,9.66,9.66
-8.86,-3.32,1.99,8.12,8.19,8.19
-8.42,-3.36,1.46,7.84,7.84,7.84
-7.86,-3.31,0.93,4.62,4.62,4.62
-7.81,-3.27,1.15,2.38,1.96,1.96
-7.81,-3.52,1.38,2.73,2.73,2.73
-7.72,-3.54,1.03,5.39,5.39,5.39
-8.12,-3.25,0.81,4.06,4.06,4.06
-8.74,-2.83,0.64,0.56,-0.77,-0.77
-8.95,-2.86,0.71,-3.99,-3.99,-4.69
-8.99,-3.06,0.46,-6.65,-6.93,-6.93
-9.29,-2.9,0.32,-9.1,-9.66,-10.15
-10.1,-2.79,0.61,-11.69,-11.69,-13.02
-9.94,-2.9,0.1,-15.75,-15.75,-15.75
-9.76,-3.02,-0.19,-17.36,-17.36,-17.36
-9.82,-2.86,-0.15,-17.01,-17.01,-17.01
-9.53,-2.95,0.07,-15.12,-15.12,-15.12
-9.01,-3.15,-0.11,-11.41,-11.41,-11.41
-8.61,-3.32,-0.41,-8.4,-7.28,-7.28
-9.05,-3.13,-0.22,-3.01,-3.01,-3.01
-9.42,-2.8,0.13,2.87,3.36,3.36
-9.38,-2.52,0.04,5.32,5.32,5.32
-9.49,-2.22,0.11,4.83,4.62,4.62
-9.46,-2.07,0.44,3.29,3.29,3.01
-8.16,-1.98,0.03,-1.05,-1.05,-1.05
-7.66,-2.1,0.23,-3.92,-4.62,-4.62
-7.71,-2.38,0.46,-5.67,-5.74,-5.74
-7.93,-2.16,0.37,-5.95,-5.95,-6.3
-7.72,-2.07,-0.02,-9.38,-10.01,-10.01
-7.74,-2.58,0.01,-14.56,-14.56,-14.7
-8.37,-2.86,0.53,-13.23,-13.23,-12.88
-9.58,-2.48,1.07,-9.31,-8.05,-7.42
-9.49,-2.08,1.12,-5.81,-5.81,-5.81
-8.76,-2.14,0.82,-7.49,-7.49,-7.49
-8.12,-2.69,0.89,-8.19,-7.98,-7.98
-7.66,-2.74,0.75,-6.3,-6.09,-6.09
-7.36,-2.5,0.73,-5.39,-5.39,-5.39
-7.31,-2.43,0.54,-7.35,-7.35,-7.56
-7.87,-2.72,0.57,-9.52,-9.52,-9.52
-8.78,-2.46,0.48,-8.12,-8.12,-7.84
-9.24,-2.02,0.27,-6.65,-6.65,-6.65
-9.45,-1.78,0.47,-9.73,-9.73,-10.22
-9.49,-2.25,0.77,-17.01,-17.01,-17.01
-9.28,-2.85,0.94,-19.67,-19.67,-19.67
-9.15,-2.96,0.5,-20.44,-20.44,-20.44
-8.76,-2.69,0.41,-20.58,-20.58,-20.58
-8.12,-2.74,0.43,-21.21,-21.21,-21.21
-7.99,-3.15,0.84,-19.46,-19.46,-19.46
-8.15,-3.15,0.94,-12.67,-12.67,-11.62
-7.98,-2.87,0.79,-3.85,-3.85,-1.26
-7.98,-2.57,1.06,1.89,1.89,1.89
-8.06,-2.66,1.34,4.34,4.34,4.34
-8.72,-2.56,1.52,6.23,6.23,6.93
-8.81,-2.34,1.65,9.38,9.38,9.38
-8.55,-2.25,1.51,8.54,8.54,8.54
-9.19,-2.17,1.65,5.88,5.88,5.11
-9.38,-2.31,1.61,3.43,3.43,3.15
-9.2,-2.32,1.6,2.38,2.38,2.1
-9.15,-2.36,1.64,-0.14,-0.14,-1.26
-9.08,-2.84,1.51,-3.01,-3.01,-3.01
-9.43,-3.16,1.23,-3.15,-3.15,-2.87
-9.43,-3.03,1.08,0.98,0.98,0.98
-9.64,-2.61,1.12,3.99,3.99,3.99
-9.99,-2.79,1.3,4.76,4.76,4.76
-10.01,-3.34,1.34,7.91,7.91,7.91
-10.12,-3.53,1.19,12.67,12.67,12.67
-10.25,-3.05,1.17,15.12,15.47,15.47
-10.25,-2.7,1.24,14.7,14.7,14.35
-10.22,-3.01,1.5,11.9,11.69,11.69
-10.22,-3.29,1.59,10.71,10.78,10.78
-10.04,-3,1.4,10.29,10.08,10.08
-9.52,-2.69,1.2,6.79,6.79,6.37
-9.03,-2.83,1.33,4.13,3.36,3.15
-8.97,-3.14,1.63,2.45,2.45,2.45
-9.16,-3.06,1.93,2.45,2.45,2.45
-9.05,-2.76,1.87,0.07,0.07,0.07
-8.83,-2.68,1.78,-3.29,-3.29,-3.29
-8.96,-2.91,1.97,-6.93,-7.28,-7.28
-9.36,-3.11,1.99,-8.26,-8.47,-8.47
-9.45,-3.07,1.92,-9.66,-9.73,-9.73
-9.33,-3.06,1.74,-11.97,-11.97,-11.97
-9.19,-3.2,1.65,-13.51,-13.51,-13.51
-9.27,-3.31,1.84,-12.95,-12.74,-12.74
-9.28,-3.16,2.11,-10.78,-10.78,-10.78
-8.98,-3.1,2.13,-9.66,-9.66,-9.66
-8.76,-3.13,1.92,-9.94,-10.01,-10.01
-8.66,-3.45,1.82,-9.8,-9.38,-9.38
-9.03,-3.6,1.97,-8.05,-8.05,-8.05
-9.84,-3.13,2.27,-6.09,-6.09,-6.09
-10.13,-2.72,2.28,-6.51,-6.51,-6.51
-9.95,-2.69,2.28,-7.42,-7.42,-7.42
-9.76,-2.79,2.3,-7.56,-7.56,-7.56
-9.74,-2.9,2.47,-6.79,-6.79,-6.79
-9.5,-3.02,2.49,-5.95,-5.95,-5.95
-9.12,-3.18,2.4,-4.2,-4.2,-4.2
-8.8,-3.05,2.3,-2.52,-2.52,-2.52
-8.93,-2.86,2.49,-1.75,-1.75,-1.75
-9.36,-2.8,2.71,-1.89,-1.89,-1.89
-9.58,-2.83,2.78,-2.31,-2.31,-2.31
-9.28,-2.95,2.66,-3.36,-3.36,-3.36
-9.06,-2.83,2.61,-4.9,-5.04,-5.04
-9.24,-2.66,2.76,-6.58,-6.79,-6.79
-9.32,-2.77,2.87,-8.89,-8.89,-8.89
-9.06,-2.95,2.75,-9.73,-9.73,-9.73
-8.75,-3.26,2.68,-9.94,-9.94,-9.94
-8.82,-3.17,2.65,-9.87,-9.94,-9.94
-9.07,-3.05,2.73,-10.57,-10.71,-10.71
-9.31,-3.06,2.86,-11.48,-11.9,-11.9
-9.38,-3.15,2.81,-12.53,-12.74,-12.74
-9.7,-3.18,2.97,-12.53,-12.53,-12.39
-10.03,-3.12,3.06,-10.99,-10.99,-10.99
-10.04,-3.2,3.13,-9.45,-9.1,-9.1
-9.99,-3.34,3.04,-7.84,-7.49,-7.49
-9.83,-3.54,3.1,-5.53,-5.53,-5.53
-9.43,-3.8,3.05,-2.38,-2.38,-2.38
-8.97,-3.96,2.91,1.82,1.82,2.24
-8.79,-4.04,2.86,6.65,6.65,6.65
-9.24,-3.87,2.95,9.87,9.87,9.87
-9.59,-3.76,3.12,12.6,12.6,12.6
-9.77,-3.75,3.11,14.21,14.21,14.21
-10.16,-3.64,3.05,14.77,14.77,14.77
-10.39,-3.4,3.02,13.3,13.3,13.3
-10.22,-3.36,3.01,10.5,10.5,10.5
-9.57,-3.56,2.86,7.28,7.28,7.28
-9.34,-3.7,2.97,5.81,5.81,5.81
-9.44,-3.88,3.13,5.95,5.95,5.95
-9.42,-3.96,3.12,7,7,7
-10.41,-2.87,3.07,9.52,9.31,9.31
-8.92,-3.48,2.73,4.97,4.97,4.97
-8.7,-3.69,2.85,6.93,7.28,7.28
-8.92,-3.66,2.99,8.61,9.24,9.24
-9.08,-3.6,3.21,10.22,10.64,10.99
-8.71,-3.71,3.07,11.97,11.97,12.74
-9.04,-3.51,2.96,14.35,14.35,14.56
-10.32,-3.14,3.09,15.68,15.68,15.68
-10.88,-2.88,3.05,15.54,15.54,15.54
-10.58,-3.02,2.89,15.05,15.05,15.05
-10.35,-3.16,2.9,14.63,14.63,14.63
-10.12,-3.24,2.99,13.72,13.51,13.51
-9.56,-3.57,2.88,13.16,13.16,13.16
-9.48,-3.57,2.92,12.74,12.74,12.39
-9.32,-3.67,2.66,10.08,9.59,9.59
-9.31,-4.07,2.43,7.35,7.35,7.35
-9.17,-4.26,2.33,8.4,8.4,8.89
-8.94,-4.14,2.24,10.78,10.78,10.78
-8.73,-4.03,2.22,10.57,10.57,10.57
-8.95,-4.11,2.3,11.55,11.55,11.55
-9.38,-3.93,2.45,14.21,15.19,15.19
-9.79,-3.2,2.4,17.99,17.99,18.13
-9.82,-2.73,1.93,15.12,15.12,15.12
-9.99,-2.56,1.99,10.85,9.52,9.52
-9.76,-2.85,2.27,7.49,7.49,7.49
-9.32,-2.82,2.35,8.54,8.68,8.68
-8.56,-2.84,1.75,8.4,8.4,8.12
-8.08,-2.94,1.37,6.51,6.51,6.37
-8.51,-3.06,1.8,6.44,6.44,6.72
-8.41,-3.17,1.67,10.15,10.15,10.15
-7.91,-2.97,1.4,11.9,11.9,12.11
-7.23,-3.01,1.06,12.04,12.04,12.04
-7.27,-3.16,0.82,11.69,11.69,11.69
-7.95,-3.01,0.94,11.9,11.9,11.83
-8.88,-2.57,1.12,10.85,10.85,10.85
-9.16,-2.29,0.68,5.25,5.25,5.25
-9.32,-2.62,0.48,0,0,0
-10.08,-2.99,1,-6.37,-6.37,-6.37
-10.21,-2.93,0.92,-7.98,-7.98,-8.05
-9.68,-2.82,0.57,-8.96,-8.96,-9.17
-8.95,-2.97,0.09,-10.64,-10.64,-10.64
-8.8,-3.38,0.24,-10.15,-10.15,-10.15
-9.35,-3.68,0.5,-5.25,-4.13,-4.13
-8.86,-3.57,0.25,14.28,15.54,15.96
-8.91,-3.4,0.1,15.82,15.82,15.82
-9.55,-3.24,0.76,11.2,10.78,10.78
-9.59,-3.09,0.72,8.4,6.72,6.72
-9.12,-2.94,0.44,2.52,1.54,-0.7
-9.38,-2.68,0.48,-6.51,-7.7,-7.7
-9.62,-2.86,0.37,-14.77,-14.77,-15.12
-9.73,-2.72,0.41,-16.87,-16.94,-16.94
-9.36,-2.49,0.52,-17.5,-17.5,-17.64
-8.78,-2.62,0.68,-19.25,-19.25,-19.6
-8.1,-3.61,0.18,-11.83,-11.83,-10.36
-7.92,-2.97,0.67,-8.19,-8.19,-8.19
-7.78,-3.02,0.71,-8.89,-8.89,-8.89
-7.98,-2.96,0.32,-7.07,-7.07,-6.44
-8.52,-2.61,0.13,-2.03,-2.03,-2.03
-8.76,-2.14,0.38,-2.1,-2.1,-2.1
-8.93,-2.01,0.39,-4.55,-4.55,-4.55
-9.2,-2.13,0.26,-8.33,-8.33,-8.33
-8.69,-2.42,0.02,-9.59,-9.59,-9.59
-7.96,-2.91,-0.23,-9.87,-9.87,-9.87
-7.79,-3.06,-0.35,-9.24,-9.24,-9.31
-7.96,-2.87,-0.08,-7.98,-7.42,-7.14
-7.73,-2.84,-0.13,-5.53,-4.9,-4.55
-7.61,-2.91,-0.46,-2.73,-2.73,-1.54
-8.33,-2.84,-0.6,1.47,1.47,1.47
-8.79,-2.39,-0.23,4.62,4.62,4.62
-8.95,-2.15,-0.13,4.13,4.13,4.13
-9.34,-1.97,-0.26,-0.35,-0.35,-0.35
-9.81,-2.33,-0.33,-3.36,-3.36,-3.36
-10.08,-2.25,0.16,-5.25,-5.25,-5.25
-9.65,-2.12,0.51,-6.79,-7.63,-7.63
-8.54,-2.42,0.6,-10.85,-11.13,-11.13
-8.18,-2.76,0.51,-12.53,-12.53,-12.53
-8.15,-2.57,0.42,-11.13,-10.43,-10.01
-7.86,-2.42,0.5,-8.33,-8.33,-7.98
-7.64,-2.69,0.92,-6.86,-6.86,-6.86
-7.89,-3.01,1.08,-5.25,-4.83,-4.83
-8.54,-2.43,1.01,0.84,0.84,0.84
-8.94,-1.79,0.76,3.22,3.22,3.22
-8.83,-1.76,0.71,0.14,0.14,0.14
-8.86,-2.27,1.23,-4.69,-4.69,-4.69
-9.33,-2.52,1.34,-3.08,-3.08,-3.08
-9.62,-2.53,1,-0.77,-0.77,-0.77
-9.51,-2.39,0.86,-0.49,-0.7,-0.7
-9.48,-2.75,0.98,-2.31,-2.31,-2.31
-9.6,-3.08,1.16,-1.54,-1.54,-1.54
-9.32,-3.15,1.3,2.8,2.8,2.8
-8.65,-2.98,1.08,7.42,7.42,7.42
-8.46,-2.88,1.37,7.84,7.7,7.7
-8.54,-2.95,1.45,7.49,7.49,7.56
-8.93,-2.66,1.23,8.54,8.96,9.1
-9.38,-2.39,1.38,9.38,9.24,9.24
-9.46,-2.45,1.4,7.21,5.88,5.88
-10.03,-2.51,1.34,2.1,2.1,0.98
-10.3,-2.55,1.13,-3.15,-3.15,-3.15
-9.81,-3.06,0.9,-18.48,-18.48,-18.76
-9.64,-3.23,0.94,-18.34,-18.34,-17.85
-9.39,-3.21,1.03,-15.26,-14,-13.37
-8.97,-3.16,1.12,-9.31,-9.31,-8.68
-8.59,-3.53,1.14,-3.85,-3.85,-3.85
-8.77,-3.62,1.25,2.38,2.38,3.36
-9.15,-3.05,1.3,11.13,11.13,11.13
-9.26,-2.6,1.32,13.72,13.72,13.72
-9.46,-2.59,1.51,13.02,13.02,13.02
-9.76,-2.72,1.74,12.04,12.04,12.04
-10.03,-2.56,1.81,11.34,10.22,10.22
-9.77,-2.14,1.67,7.21,6.37,4.41
-9.46,-2.02,1.34,-1.26,-2.59,-2.59
-9.46,-2.32,1.33,-13.65,-14.56,-14.56
-10.03,-2.81,1.69,-24.29,-24.29,-24.29
-9.7,-2.96,1.59,-28.84,-28.84,-28.84
-9.25,-3.13,1.47,-30.8,-31.01,-31.01
-9.24,-3.31,1.74,-30.8,-30.8,-30.59
-9.49,-3.38,2.05,-26.95,-26.95,-26.39
-9.55,-3.38,2.15,-22.47,-22.47,-21.77
-9.49,-3.33,2.17,-18.27,-18.27,-17.5
-9.46,-3.28,2.31,-12.11,-12.11,-12.11
-9.71,-3.2,2.5,-8.33,-7,-7
-10.36,-3.09,2.77,-3.01,-3.01,-2.03
-10.84,-2.89,2.92,0.77,0.77,1.12
-10.83,-2.55,2.84,1.4,1.4,1.4
-10.23,-2.57,2.66,0,-0.42,-0.42
-10.07,-2.74,2.62,-1.05,-1.05,-1.05
-10.11,-3.09,2.74,-0.56,-0.28,-0.28
-10.03,-3.44,2.76,1.05,1.47,1.47
-9.79,-3.56,2.6,4.83,4.83,5.39
-9.48,-3.54,2.41,7.98,7.98,7.98
-9.53,-3.54,2.46,11.69,11.69,11.69
-9.77,-3.47,2.49,13.23,13.44,13.44
-9.97,-3.26,2.52,13.44,13.09,13.09
-10.12,-3.05,2.42,11.55,11.13,10.29
-10.27,-2.92,2.46,6.44,5.88,5.88
-9.99,-3.07,2.42,1.89,1.54,1.54
-9.54,-3.22,2.24,-0.98,-0.98,-1.19
-9.01,-3.21,2.13,-1.96,-2.03,-2.17
-8.73,-3.22,2.06,-2.1,-2.1,-1.89
-8.61,-3.25,2.04,-0.28,-0.28,17.64
-8.54,-3.21,1.98,2.8,2.8,2.8
-8.45,-3.06,1.82,6.72,6.72,6.72
-8.38,-2.99,1.76,8.54,9.17,9.17
-8.57,-2.97,1.77,10.78,10.78,11.48
-8.85,-3.04,1.8,13.58,14.28,14.28
-9.13,-2.98,1.83,16.59,17.22,17.22
-9.13,-2.91,1.77,19.46,19.46,19.88
-9.03,-2.83,1.67,21.77,22.26,22.26
-9.12,-2.59,1.58,23.66,23.66,23.94
-9.34,-2.3,1.56,25.34,25.34,25.34
-9.61,-2,1.58,26.32,26.39,26.39
-9.77,-1.88,1.55,26.53,26.67,26.67
-9.67,-1.98,1.53,26.95,27.09,27.09
-9.53,-2.06,1.38,28.77,28.77,29.05
-9.09,-2.3,1.31,30.87,30.87,31.15
-9,-2.46,1.21,35.77,35.77,35.77
-9.25,-2.42,1.32,40.95,40.95,40.95
-9.38,-2.37,1.29,44.87,46.06,46.06
-9.54,-2.31,1.42,50.05,51.45,51.45
-9.64,-2.19,1.35,56.49,56.49,57.26
-9.45,-2.17,1.31,64.05,64.05,64.05
-9.3,-1.91,1.19,69.02,69.72,69.72
-9.53,-1.62,1.23,74.97,74.97,75.25
-10.29,-1.17,1.3,76.58,76.79,76.86
-10.71,-0.62,1.29,75.32,75.32,75.32
-10.88,-0.39,1.33,71.4,71.4,71.4
-9.89,0.19,1.39,53.41,53.41,53.41
-9.4,0.41,1.63,44.38,44.38,44.38
-8.94,0.61,1.91,30.1,29.26,29.26
-8.88,0.58,1.99,22.05,21,21
-8.99,0.54,2.06,11.06,11.06,9.73
-9.14,0.69,2.12,2.66,-0.49,-1.96
-9.83,0.38,2.17,-37.17,-39.55,-39.55
-9.96,-0.07,2.1,-45.78,-46.34,-46.34
-10.04,-0.38,2.06,-48.65,-48.65,-48.51
-9.96,-0.5,2.01,-47.18,-46.76,-46.76
-10.08,-0.34,1.83,-43.19,-43.19,-42.77
-10.08,-0.27,1.8,-39.9,-39.9,-39.48
-9.86,-0.45,1.81,-36.96,-36.47,-36.47
-9.56,-0.73,1.79,-32.13,-32.13,-31.36
-9.32,-1.16,1.65,-24.78,-24.78,-23.94
-9.1,-1.44,1.54,-19.39,-19.39,-19.39
-9.25,-1.64,1.43,-12.95,-12.25,-12.25
-9.49,-1.67,1.32,-9.03,-8.47,-8.47
-9.68,-1.6,1.3,-5.81,-5.81,-5.81
-9.8,-1.51,1.22,-3.64,-3.64,-3.64
-9.99,-1.42,1.13,-2.1,-1.47,-1.47
-10.26,-1.32,1.01,0.77,0.77,0.77
-10.33,-1.22,0.89,4.2,4.2,4.2
-10.28,-0.84,0.65,6.44,6.44,6.44
-10.25,-0.73,0.56,6.3,6.3,6.3
-10.15,-0.72,0.55,5.53,5.04,5.04
-10.02,-0.79,0.61,2.8,2.8,2.8
-10.08,-0.97,0.66,0.77,0.35,0.35
-10.12,-1.05,0.73,-2.8,-2.8,-3.22
-9.84,-1,0.61,-6.72,-6.72,-6.72
-9.69,-0.89,0.62,-12.88,-12.88,-12.88
-9.6,-0.81,0.57,-16.52,-17.5,-17.5
-9.5,-0.72,0.63,-20.58,-20.58,-20.58
-9.33,-0.62,0.72,-24.85,-24.85,-24.85
-9.21,-0.51,0.8,-27.37,-27.37,-27.79
-9.33,-0.45,0.85,-30.1,-30.1,-30.24
-9.53,-0.39,0.97,-31.64,-31.64,-31.64
-9.76,-0.41,1.05,-31.64,-31.5,-31.5
-9.89,-0.45,1.08,-30.52,-30.31,-30.31
-10.1,-0.48,1.08,-28.91,-28.63,-28.63
-10.26,-0.57,1.11,-25.62,-25.62,-25.34
-10.24,-0.68,1.12,-22.89,-22.89,-22.47
-10.04,-0.86,1.08,-18.2,-18.2,-18.2
-9.83,-0.95,1.05,-15.05,-14.56,-14.56
-9.87,-1.1,1.02,-10.29,-10.29,-9.66
-9.91,-1.17,1.03,-5.74,-5.74,-5.11
-9.81,-1.24,0.96,-0.35,-0.35,17.57
-9.6,-1.25,0.82,2.94,2.94,2.94
-9.42,-1.27,0.74,6.23,6.58,6.58
-9.35,-1.34,0.67,8.05,8.05,8.05
-9.36,-1.41,0.65,9.24,9.24,9.24
-9.33,-1.47,0.63,9.1,9.03,9.03
-9.35,-1.48,0.63,8.47,8.47,8.33
-9.37,-1.44,0.59,7.91,7.91,7.98
-9.34,-1.37,0.67,7.98,7.98,7.98
-9.45,-1.33,0.68,10.22,10.22,10.22
-9.77,-1.1,0.64,12.74,13.44,13.44
-10.03,-0.7,0.58,15.68,15.68,16.24
-10.26,-0.41,0.63,17.43,17.43,17.71
-10.48,-0.22,0.7,18.34,18.34,18.34
-10.59,0,0.68,19.53,19.53,19.53
-10.51,0.28,0.66,19.6,19.46,19.46
-10.34,0.47,0.52,16.87,16.87,16.45
-10.1,0.51,0.46,13.65,12.25,12.25
-10.08,0.46,0.39,7.14,7.14,7.14
-10.11,0.4,0.34,2.66,2.66,2.66
-10.04,0.34,0.23,-3.29,-3.29,-3.29
-9.87,0.2,0.08,-9.52,-10.43,-10.43
-9.96,0.11,0.09,-18.97,-19.95,-19.95
-10.15,-0.05,0.2,-26.11,-26.11,-26.95
-10.27,-0.26,0.33,-32.97,-32.97,-33.74
-10.11,-0.49,0.42,-37.73,-39.27,-39.9
-9.88,-0.71,0.51,-43.68,-43.68,-43.68
-9.69,-0.91,0.55,-45.92,-45.92,-45.92
-9.57,-1.11,0.62,-45.71,-45.5,-45.5
-9.49,-1.24,0.65,-43.05,-43.05,-42.7
-9.32,-1.28,0.61,-39.55,-39.55,-39.55
-9.24,-1.17,0.66,-35,-34.65,-34.65
-9.22,-1.25,0.68,-32.48,-31.57,-31.22
-9.5,-1.41,0.85,-27.65,-27.65,-27.65
-9.71,-1.48,0.99,-22.68,-22.68,-22.68
-9.86,-1.47,1.15,-17.01,-17.01,-17.01
-9.9,-1.52,1.23,-13.65,-13.16,-13.16
-10.02,-1.64,1.38,-10.64,-10.29,-10.29
-10.1,-1.73,1.44,-7.42,-7,-7
-9.98,-1.72,1.45,-4.41,-4.41,-4.41
-9.81,-1.6,1.38,-0.56,-0.56,-0.56
-9.79,-1.42,1.35,2.03,2.73,2.73
-9.76,-1.27,1.36,4.97,5.6,5.6
-9.62,-1.09,1.36,7.07,7.07,7.35
-9.45,-0.94,1.3,7.84,7.77,7.77
-9.31,-0.9,1.28,6.93,6.93,6.93
-9.17,-0.92,1.2,5.32,5.32,5.18
-9.13,-0.85,1.08,3.43,3.43,3.08
-9.27,-0.74,0.98,0,0,0
-9.48,-0.6,0.92,-3.08,-3.08,-3.08
-9.67,-0.63,0.92,-7.42,-7.42,-7.42
-9.89,-0.71,0.88,-12.95,-12.95,-12.95
-10.02,-0.77,0.81,-15.33,-15.33,-15.61
-10.13,-0.76,0.72,-17.5,-17.78,-17.78
-10.12,-0.73,0.59,-19.25,-19.25,-19.39
-10.1,-0.74,0.56,-20.16,-20.58,-20.72
-10.02,-0.87,0.5,-21.63,-21.63,-21.63
-9.9,-1.04,0.45,-22.12,-22.12,-22.12
-9.86,-1.2,0.38,-21.42,-21.42,-21.42
-9.83,-1.37,0.35,-20.23,-20.23,-20.23
-9.63,-1.45,0.23,-18.2,-17.85,-17.85
-9.67,-1.46,0.25,-17.15,-17.15,-17.15
-9.85,-1.48,0.34,-15.05,-15.05,-15.05
-9.89,-1.49,0.36,-13.51,-13.51,-13.51
-9.89,-1.45,0.36,-11.55,-11.06,-11.06
-9.89,-1.36,0.31,-9.45,-9.45,-9.45
-10.07,-1.33,0.31,-7.49,-7.49,-7.49
-10.25,-1.3,0.32,-3.92,-3.92,-3.92
-10.24,-1.27,0.36,-0.77,-0.77,-0.77
-10.04,-1.26,0.33,1.33,1.33,1.33
-9.93,-1.2,0.35,4.62,4.62,4.62
-9.87,-1.23,0.4,6.79,6.79,6.79
-9.77,-1.24,0.42,8.33,8.33,8.33
-9.65,-1.2,0.45,9.45,9.73,9.73
-9.66,-1.13,0.43,10.57,10.57,10.57
-9.55,-1.11,0.51,9.94,9.94,9.94
-9.41,-1.12,0.54,8.05,7.7,7.7
-9.38,-1.14,0.66,4.2,4.2,3.99
-9.38,-1.17,0.73,2.17,2.17,1.89
-9.46,-1.22,0.84,0.49,0.49,0.28
-9.56,-1.16,0.97,-2.45,-2.45,-2.45
-9.69,-1.18,1.04,-4.62,-4.62,-5.32
-9.66,-1.31,1.2,-8.05,-8.05,-8.05
-9.65,-1.44,1.24,-9.8,-9.94,-9.94
-9.64,-1.53,1.2,-10.01,-9.73,-9.73
-9.51,-1.56,1.14,-9.31,-9.31,-9.31
-9.37,-1.62,1.07,-9.38,-9.38,-9.52
-9.3,-1.63,0.99,-9.45,-9.45,-9.31
-9.36,-1.68,0.94,-8.82,-8.82,-8.61
-9.47,-1.72,0.85,-7.35,-7.35,-7
-9.6,-1.75,0.81,-6.37,-6.02,-5.88
-9.69,-1.77,0.81,-5.04,-4.69,-4.48
-9.7,-1.82,0.81,-3.64,-3.43,-3.22
-9.79,-1.82,0.76,-2.66,-2.66,-2.24
-9.9,-1.84,0.79,-1.68,-1.68,-1.47
-9.97,-1.83,0.77,-0.98,-0.98,-1.05
-9.87,-1.9,0.68,0.07,0.42,0.63
-9.65,-1.82,0.62,2.1,2.31,2.31
-9.62,-1.75,0.53,4.76,5.11,5.11
-9.59,-1.66,0.49,6.58,6.79,6.79
-9.56,-1.63,0.51,7.77,7.77,7.77
-9.56,-1.65,0.52,7.35,7.35,7.35
-9.67,-1.69,0.53,6.51,6.37,6.09
-9.87,-1.81,0.53,5.32,4.97,4.83
-9.93,-1.94,0.59,3.99,3.78,3.78
-9.87,-2.04,0.6,1.82,1.82,1.61
-9.74,-2.05,0.58,0.14,-0.56,-0.7
-9.71,-2.06,0.55,-2.1,-2.38,-2.59
-9.72,-2.09,0.56,-3.29,-3.64,-3.71
-9.83,-2.1,0.61,-4.06,-4.06,-4.34
-9.84,-2.03,0.61,-4.76,-4.76,-4.76
-9.88,-1.92,0.64,-5.11,-5.11,-5.11
-9.8,-1.84,0.61,-4.9,-4.83,-4.83
-9.76,-1.72,0.59,-4.2,-4.2,-4.13
-9.58,-1.62,0.6,-3.43,-3.43,-3.43
-9.57,-1.6,0.59,-2.17,-2.03,-2.03
-9.54,-1.56,0.55,-0.84,-0.63,-0.63
-9.5,-1.55,0.54,0.28,0.28,0.28
-9.48,-1.57,0.49,1.61,1.61,1.75
-9.6,-1.62,0.55,2.24,2.24,2.24
-9.65,-1.66,0.5,2.38,2.38,2.38
-9.65,-1.63,0.45,2.59,2.59,2.59
-9.63,-1.61,0.43,2.45,2.45,2.45
-9.7,-1.6,0.45,2.45,2.45,2.45
-9.79,-1.63,0.43,2.38,2.38,2.38
-9.84,-1.64,0.5,2.45,2.38,2.38
-9.89,-1.66,0.5,2.1,1.89,1.89
-9.96,-1.66,0.57,1.4,1.4,1.4
-9.99,-1.69,0.64,0.35,0.21,0.21
-10.1,-1.67,0.66,-0.21,-0.21,-0.21
-10.07,-1.72,0.71,-0.84,-0.84,-0.91
-9.96,-1.77,0.77,-1.05,-1.05,-1.12
-9.78,-1.8,0.83,-1.12,-1.12,-1.26
-9.61,-1.79,0.85,-1.12,-1.12,-1.12
-9.36,-1.79,0.9,-1.33,-1.33,-1.33
-9.31,-1.81,0.89,-1.19,-1.12,-1.12
-9.36,-1.78,0.87,-0.84,-0.84,-0.84
-9.41,-1.71,0.82,-0.63,-0.56,-0.56
-9.78,-1.52,0.8,-1.19,-1.26,-1.26
-9.79,-1.52,0.77,-0.63,-0.63,-0.63
-9.8,-1.45,0.72,0.07,0.28,0.28
-9.85,-1.31,0.59,0.91,0.98,0.98
-9.82,-1.29,0.47,1.19,1.19,1.12
-9.73,-1.3,0.43,1.12,1.05,0.98
-9.62,-1.32,0.32,0.7,0.56,0.42
-9.53,-1.34,0.14,-4.62,-4.62,-4.62
-9.65,-1.36,0.13,-6.23,-6.79,-6.79
-9.82,-1.46,0.19,-8.75,-8.75,-8.75
-10,-1.59,0.24,-10.29,-10.29,-10.29
-10.17,-1.7,0.31,-10.57,-10.57,-10.57
-10.2,-1.78,0.36,-9.73,-9.73,-9.73
-10.14,-1.85,0.37,-8.47,-8.47,-8.47
-10.05,-1.94,0.35,-6.02,-5.74,-5.74
-9.97,-2.02,0.39,-3.85,-2.52,-2.52
-9.75,-2.11,0.44,0.56,0.56,0.56
-9.55,-2.12,0.46,4.2,4.2,4.2
-9.44,-2.1,0.48,6.37,6.37,6.37
-9.37,-2.05,0.55,8.82,9.1,9.1
-9.34,-1.94,0.58,10.5,10.5,10.5
-9.33,-1.84,0.62,11.76,11.9,11.9
-9.44,-1.74,0.67,12.6,12.6,12.6
-9.66,-1.66,0.65,12.67,12.67,12.53
-9.79,-1.58,0.69,11.76,11.76,11.41
-9.86,-1.49,0.68,9.87,9.87,9.87
-9.9,-1.41,0.68,7.07,7.07,7.07
-9.92,-1.38,0.69,5.25,5.18,5.18
-9.94,-1.34,0.66,2.94,2.94,2.94
-9.86,-1.37,0.69,0.42,0.28,0.28
-9.76,-1.34,0.68,-1.61,-1.89,-1.89
-9.73,-1.37,0.67,-3.5,-3.64,-3.64
-9.64,-1.43,0.63,-4.69,-4.83,-4.83
-9.51,-1.53,0.66,-6.16,-6.16,-6.23
-9.41,-1.59,0.66,-7.21,-7.21,-7.21
-9.4,-1.71,0.69,-7.49,-7.56,-7.56
-9.51,-1.83,0.72,-7.49,-7.49,-7.35
-9.62,-1.86,0.77,-6.86,-6.86,-6.86
-9.68,-1.93,0.76,-5.95,-5.81,-5.81
-9.69,-1.96,0.78,-5.32,-5.18,-5.18
-9.73,-2.03,0.74,-3.43,-3.43,-3.22
-9.83,-2.04,0.76,-1.33,-1.33,-0.98
-9.91,-2.12,0.8,0.56,0.56,0.77
-9.9,-2.15,0.79,2.38,2.38,2.38
-9.82,-2.15,0.75,3.99,3.99,4.13
-9.76,-2.07,0.74,5.39,5.39,5.39
-9.67,-1.99,0.74,6.51,6.51,6.51
-9.62,-1.89,0.74,7.28,7.49,7.49
-9.62,-1.79,0.73,7.98,7.98,7.98
-9.64,-1.65,0.77,8.47,8.47,8.47
-9.65,-1.6,0.74,8.12,8.12,8.12
-9.58,-1.55,0.74,7.35,7.35,7.35
-9.59,-1.54,0.75,6.65,6.65,6.65
-9.67,-1.56,0.77,5.04,5.04,5.04
-9.7,-1.56,0.78,3.78,3.78,3.78
-9.68,-1.61,0.79,2.73,2.73,2.73
-9.6,-1.57,0.8,0.77,0.77,0.77
-9.58,-1.5,0.76,-0.77,-0.77,-0.77
-9.6,-1.49,0.76,-1.68,-1.68,-1.68
-9.62,-1.49,0.75,-2.31,-2.45,-2.45
-9.66,-1.52,0.73,-2.73,-2.8,-2.8
-9.69,-1.49,0.7,-3.08,-2.87,-2.87
-9.73,-1.52,0.7,-3.08,-2.94,-2.94
-9.81,-1.53,0.7,-2.73,-2.73,-2.73
-9.85,-1.55,0.71,-1.96,-1.82,-1.82
-9.83,-1.65,0.71,-1.19,-0.91,-0.91
-9.75,-1.73,0.72,-0.35,-0.35,-0.28
-9.68,-1.77,0.72,0.28,0.35,0.56
-9.62,-1.78,0.66,1.12,1.12,1.19
-9.55,-1.84,0.69,1.19,1.19,1.19
-9.62,-1.83,0.71,0.84,0.84,0.84
-9.72,-1.85,0.76,0.7,0.7,0.7
-9.7,-1.9,0.77,0.91,0.91,0.91
-9.7,-1.9,0.73,1.61,1.61,1.61
-9.7,-1.88,0.72,1.75,1.82,1.82
-9.78,-1.87,0.71,1.96,1.96,2.1
-9.86,-1.82,0.74,2.38,2.38,2.38
-9.87,-1.81,0.75,2.52,2.52,2.45
-9.8,-1.82,0.76,2.66,2.66,2.66
-9.72,-1.78,0.74,3.15,3.15,3.15
-9.72,-1.7,0.72,3.99,3.99,3.99
-9.62,-1.66,0.75,4.34,4.34,4.2
-9.57,-1.62,0.75,4.48,4.48,4.48
-9.49,-1.58,0.71,4.48,4.69,4.69
-9.47,-1.55,0.73,4.55,4.55,4.55
-9.5,-1.5,0.73,3.71,3.71,3.71
-9.6,-1.44,0.73,2.94,2.66,2.66
-9.66,-1.48,0.76,1.96,1.75,1.75
-9.65,-1.52,0.71,0.98,0.98,0.7
-9.72,-1.58,0.57,-1.68,-1.82,-1.82
-9.69,-1.64,0.52,-3.43,-3.43,-3.43
-9.7,-1.68,0.48,-4.41,-4.41,-4.69
-9.71,-1.72,0.51,-5.39,-5.39,-5.39
-9.77,-1.77,0.47,-5.95,-5.95,-5.95
-9.72,-1.85,0.56,-7,-7,-7
-9.78,-1.9,0.55,-6.23,-6.23,-6.23
-9.82,-1.94,0.57,-5.46,-5.04,-5.04
-9.81,-1.91,0.58,-4.2,-3.99,-3.92
-9.77,-1.84,0.58,-3.36,-3.08,-3.08
-9.73,-1.81,0.67,-2.45,-2.45,-2.17
-9.71,-1.83,0.74,-0.91,-0.91,-0.7
-9.64,-1.84,0.78,0.77,0.77,0.77
-9.45,-1.84,0.79,1.33,1.33,1.33
-9.42,-1.91,0.83,0.98,0.98,0.98
-9.46,-1.95,0.83,0.63,0.7,0.7
-9.44,-1.98,0.83,0.49,0.49,0.49
-9.46,-1.99,0.84,-0.35,-0.49,-0.49
-9.54,-1.96,0.83,-1.26,-1.68,-1.68
-9.59,-2,0.8,-2.38,-2.66,-2.66
-9.64,-2.03,0.84,-3.01,-3.08,-3.22
-9.79,-2.03,0.77,-4.27,-4.27,-4.27
-9.81,-2.03,0.72,-4.62,-4.62,-4.62
-9.71,-2.03,0.68,-4.48,-4.48,-4.48
-9.67,-2.04,0.61,-4.34,-4.34,-4.34
-9.66,-2.06,0.55,-3.78,-3.78,-3.71
-9.64,-2.09,0.5,-3.22,-3.08,-3.08
-9.62,-2.16,0.49,-2.1,-1.82,-1.82
-9.57,-2.14,0.47,-0.7,-0.49,-0.49
-9.65,-2.06,0.45,0.77,0.77,0.98
-9.79,-2.01,0.45,1.68,1.68,1.82
-9.83,-2.01,0.44,2.73,2.73,2.73
-9.77,-1.93,0.37,3.64,3.64,3.64
-9.72,-1.81,0.33,3.99,3.99,4.06
-9.73,-1.74,0.29,3.99,3.99,3.99
-9.79,-1.75,0.33,3.78,3.78,3.78
-0.31,0.8,10.14,117.39,118.93,118.93
-0.83,1.12,9.7,122.85,122.85,123.97
-1.47,1.42,9.04,128.45,128.45,128.45
-2.04,1.72,8.64,133.07,133.07,133.07
-2.87,2.18,8.1,139.23,139.23,140.84
-3.2,3.65,7.37,143.99,143.99,144.34
-3.51,2.68,6.63,146.72,146.72,146.72
-3.96,2.84,6.04,148.05,148.54,148.54
-4.51,3,5.4,149.73,149.73,149.8
-5,3.36,4.76,148.54,148.54,148.54
-5.35,3.51,4.31,145.39,144.69,143.5
-5.69,3.56,3.78,140.49,140.49,138.74
-6.17,3.52,3.21,135.66,135.66,135.17
-6.75,3.43,2.41,129.57,129.57,129.01
-7.52,3.04,1.81,126.7,126.7,126.63
-7.96,2.99,1.25,125.72,125.72,125.72
-7.89,3.2,0.89,124.25,124.25,124.25
-8.01,3.31,0.37,119.35,119.35,118.65
-8.01,3.34,0.11,114.17,114.17,114.17
-7.64,3.55,0.03,111.86,111.86,111.86
-7.71,4.18,0.09,105.21,105.21,105.21
-7.83,4.47,0.1,98.91,98.91,97.79
-8.34,5.08,0.36,67.69,66.15,66.15
-8.66,4.73,0.29,28.91,27.44,27.44
-9.11,4.76,0.67,2.31,1.26,1.26
-9.07,4.59,0.76,-7.35,-7.35,-8.05
-8.96,3.85,0.9,-16.31,-16.31,-16.31
-9.25,3.52,1.14,-17.29,-17.36,-17.36
-9.41,3.19,1.28,-17.15,-17.22,-17.22
-9.49,2.9,1.39,-17.01,-16.8,-16.8
-9.37,2.6,1.47,-16.52,-16.52,-16.52
-8.93,1.95,1.51,-16.52,-16.52,-16.24
-8.65,1.58,1.46,-14.77,-14.77,-14.35
-8.54,1.32,1.52,-9.52,-9.52,-9.52
-8.58,1.19,1.52,-4.9,-4.9,-4.9
-8.82,1.1,1.54,0.77,0.77,0.77
-8.94,0.96,1.51,4.48,5.88,5.88
-8.95,0.77,1.35,9.31,10.15,10.15
-9.1,0.68,1.08,17.36,18.06,18.06
-9.12,0.63,0.87,23.66,24.5,24.5
-9.02,0.55,0.68,28.42,29.12,30.73
-8.99,0.56,0.41,35,35,35.49
-8.86,0.46,0.04,38.43,38.43,38.43
-8.74,0.33,-0.22,40.39,41.16,41.16
-9.02,0.21,-0.44,43.68,43.96,43.96
-9.19,0.37,-0.53,45.99,45.99,45.99
-9.2,0.71,-0.56,45.71,45.15,44.8
-9.24,0.93,-0.6,42.35,42.35,40.46
-9.39,1,-0.57,37.31,37.31,35.14
-9.6,0.94,-0.48,31.57,31.57,29.54
-9.76,0.89,-0.39,24.99,24.99,24.99
-9.82,0.91,-0.25,19.25,19.25,19.25
-9.82,1.06,-0.16,9.66,9.66,9.66
-9.86,1,-0.14,1.47,1.47,1.47
-9.89,0.87,-0.07,-3.71,-3.71,-3.71
-9.94,0.54,0.11,-9.73,-10.43,-10.43
-9.98,0.26,0.16,-14.42,-15.05,-15.05
-10.1,-0.16,0.22,-17.22,-17.64,-17.64
-10.44,-0.48,0.33,-19.25,-19.25,-19.25
-10.77,-0.76,0.29,-20.86,-20.93,-20.93
-10.26,-0.83,0.11,-21.77,-21.77,-21.98
-9.52,-0.76,-0.14,-22.33,-22.26,-22.26
-8.67,-0.91,-0.36,-22.26,-22.12,-22.12
-7.52,-0.8,-0.53,-21.21,-21.07,-21.07
-6.72,-0.55,-0.59,-19.74,-19.74,-19.39
-6.29,-0.32,-0.63,-18.55,-18.55,-18.55
-6.28,-0.56,-0.45,-17.43,-17.43,-17.43
-6.55,-0.89,-0.29,-16.45,-16.38,-16.38
-7.99,-1.18,0.01,-17.29,-17.64,-17.64
-10.46,-1.56,0.32,-23.52,-23.52,-24.78
-12.89,-2.28,0.72,-34.72,-34.72,-35.49
-14.9,-2.85,0.48,-36.68,-36.68,-36.47
-17.33,-3.63,0.3,-34.79,-34.79,-34.79
-17.26,-3.82,0.15,-32.48,-32.2,-32.2
-14.73,-3.18,0.72,-28.7,-27.72,-27.72
-11.75,-2.15,1.4,-22.89,-19.25,-19.25
-8.99,-0.69,2.39,-12.25,-7.77,-7.77
-7.01,0.62,3.45,3.36,3.36,3.36
-6.53,1.31,4.08,15.89,15.89,17.5
-7.02,1.5,4.15,27.58,27.58,27.58
-7.79,1.49,3.83,31.01,31.01,31.01
-8.59,1.13,3.36,29.89,29.89,29.89
-9.12,0.5,2.54,25.62,25.06,25.06
-9.43,-0.38,1.35,19.32,19.32,18.62
-9.88,-0.86,0.5,13.65,13.65,12.88
-9.88,-1.14,0,8.82,7,5.95
-10.22,-1.35,-0.64,0.77,-0.28,-0.28
-10.28,-1.5,-1.32,-8.75,-8.75,-8.75
-10.29,-1.45,-1.81,-16.94,-17.92,-17.92
-10.46,-1.23,-1.69,-19.74,-19.74,-20.02
-10.52,-0.73,-1.11,-20.3,-20.3,-20.3
-10.66,-0.16,-0.29,-18.41,-18.41,-18.13
-10.72,0.25,0.5,-13.79,-13.79,-13.79
-10.63,0.56,1.01,-10.08,-10.08,-10.08
-10.41,0.66,1.43,-5.67,-5.67,-5.67
-10.11,0.59,1.77,0.07,0.07,0.07
-9.85,0.45,1.71,3.15,3.15,3.15
-9.61,0.16,1.57,4.9,4.9,4.9
-9.38,-0.22,1.27,5.88,5.95,5.95
-9.17,-1.12,0.57,7.28,7.42,7.42
-9.01,-1.23,0.46,7,6.58,6.51
-9.09,-1.33,0.33,5.53,4.97,4.76
-9.12,-1.29,0.32,3.57,3.57,3.43
-9.21,-1.15,0.37,2.38,2.38,2.31
-9.45,-1.04,0.45,2.03,2.03,2.17
-9.69,-0.79,0.52,2.52,2.66,2.87
-9.79,-0.45,0.67,3.36,3.36,3.78
-9.94,-0.16,0.78,4.13,4.13,4.41
-10.08,0.22,0.87,4.69,4.69,4.76
-10.14,0.55,0.97,5.32,5.32,5.39
-10.12,0.62,0.93,6.09,6.09,6.23
-10.11,0.7,0.85,6.79,6.79,6.79
-10.03,0.81,0.81,6.93,6.93,6.79
-9.94,0.9,0.74,5.95,5.95,5.95
-9.84,0.93,0.66,4.27,4.27,4.27
-9.77,0.88,0.61,3.15,3.15,3.15
-9.85,0.81,0.53,2.17,2.17,2.17
-9.99,0.71,0.59,1.19,1.19,1.19
-10.11,0.62,0.59,0.42,0.42,0.42
-10.16,0.55,0.6,0,-0.21,-0.21
-9.9,0.56,0.6,-0.7,-0.7,-0.77
-9.89,0.51,0.54,-1.61,-1.61,-1.61
-9.83,0.4,0.56,-1.75,-1.75,-1.75
-9.74,0.33,0.62,-0.91,-0.91,-0.91
-9.63,0.4,0.67,-0.49,-0.7,-0.7
-9.56,0.48,0.69,-0.91,-0.91,-1.05
-9.49,0.49,0.74,-1.61,-1.61,-1.61
-9.48,0.38,0.7,-1.96,-1.96,-1.96
-9.5,0.29,0.72,-2.1,-2.1,-2.31
-9.65,0.27,0.78,-2.31,-2.31,-2.31
-9.79,0.33,0.84,-3.01,-3.22,-3.22
-9.85,0.34,0.89,-4.2,-4.2,-4.48
-9.76,0.38,0.93,-5.53,-5.53,-5.53
-9.81,0.35,0.93,-6.65,-6.65,-6.65
-9.76,0.41,0.96,-7.28,-7.35,-7.35
-9.71,0.41,0.92,-7.35,-7.49,-7.49
-9.74,0.41,0.92,-7,-6.93,-6.93
-9.76,0.37,0.93,-5.74,-5.6,-5.6
-9.66,0.33,0.96,-4.55,-3.78,-3.78
-9.63,0.26,1.01,-2.38,-2.1,-1.61
-9.73,0.21,1.04,0.07,0.91,0.91
-9.82,0.22,1.1,2.38,2.38,2.38
-10.06,0.26,1.16,3.78,3.92,3.92
-10.13,0.34,1.25,4.69,4.83,4.83
-9.94,0.62,1.25,5.81,5.74,5.74
-9.82,0.63,1.21,5.53,5.67,5.67
-9.65,0.61,1.19,5.25,5.04,5.04
-9.57,0.59,1.14,4.41,4.41,3.85
-9.49,0.64,1.21,2.94,2.73,2.73
-9.45,0.72,1.26,0.56,0.21,0.21
-9.42,0.76,1.33,-0.56,-0.7,-0.7
-9.51,0.78,1.35,-1.19,-1.26,-1.26
-9.69,0.74,1.33,-1.4,-1.4,-1.4
-9.68,0.69,1.29,-1.68,-1.68,-1.68
-9.71,0.66,1.28,-1.47,-1.47,-1.47
-9.76,0.63,1.21,-1.47,-1.47,-1.47
-9.79,0.61,1.14,-1.33,-1.19,-1.19
-9.88,0.64,1.14,-1.12,-1.12,-0.84
-9.96,0.6,1.18,-0.21,-0.21,-0.14
-10.03,0.63,1.2,0.56,0.56,0.56
-10,0.65,1.17,0.91,0.98,0.98
-9.89,0.59,1.15,1.33,1.33,1.33
-9.76,0.53,1.1,1.4,1.4,1.4
-9.72,0.53,1.15,1.26,1.19,1.19
-9.65,0.5,1.13,0.56,0.56,0.21
-9.66,0.52,1.17,-0.91,-0.91,-1.05
-9.57,0.55,1.14,-2.17,-2.17,-2.31
-9.67,0.53,1.19,-3.29,-3.57,-3.85
-9.7,0.52,1.23,-4.97,-4.97,-4.9
-9.74,0.47,1.29,-5.39,-5.39,-5.39
-9.7,0.38,1.26,-5.32,-5.32,-5.32
-9.66,0.37,1.3,-5.18,-5.18,-5.11
-9.56,0.34,1.31,-4.83,-4.83,-4.76
-9.54,0.32,1.23,-4.55,-4.55,-4.55
-9.66,0.27,1.22,-3.99,-3.99,-3.99
-9.77,0.29,1.26,-2.59,-2.59,-2.59
-9.88,0.4,1.27,-1.4,-1.4,-1.4
-9.71,0.72,1.25,0.63,0.63,0.63
-9.67,0.79,1.21,-1.12,-1.12,-1.19
-9.85,0.8,1.24,-2.59,-2.59,-2.59
-10.27,0.84,1.27,-3.92,-4.27,-4.27
-10.71,0.88,1.36,-5.74,-5.74,-6.3
-11.05,0.78,1.41,-7.84,-7.84,-7.84
-11.28,0.67,1.43,-9.59,-9.59,-9.59
-11.45,0.72,1.42,-11.13,-11.13,-11.13
-11.74,0.64,1.46,-12.88,-13.09,-13.09
-11.72,0.25,1.09,-15.54,-15.54,-15.54
-11.93,0.24,0.92,-16.03,-16.52,-16.8
-12.32,0.22,1.01,-18.2,-18.2,-19.04
-12.32,0.04,1.08,-19.81,-19.81,-19.81
-12.33,-0.04,1.07,-20.16,-20.16,-20.16
-12.62,-0.19,0.87,-21.42,-21.42,-21.42
-12.83,-0.31,0.76,-21.21,-21.07,-21.07
-12.9,-0.38,0.84,-20.51,-20.44,-20.02
-13.06,-0.02,1.09,-19.18,-19.18,-19.18
-12.78,-0.27,1.15,-15.54,-14.98,-14.98
-12.37,-0.42,1.22,-10.78,-10.08,-10.08
-11.84,-0.34,1.19,-4.76,-4.76,-4.76
-11.89,-0.55,1.46,1.26,1.26,1.26
-11.42,-0.86,1.34,7.7,7.7,7.7
-10.85,-1.04,1.4,17.01,17.01,17.01
-10.82,-0.97,1.6,22.61,23.38,23.38
-10.72,-0.67,1.86,28.42,29.26,29.26
-10.31,-0.41,1.83,30.1,30.1,30.24
-9.87,-0.57,1.38,30.73,30.73,31.29
-9.13,-0.81,0.92,34.23,34.23,34.23
-8.97,-0.39,0.99,37.24,37.31,37.31
-8.89,-0.03,0.86,37.24,37.24,37.24
-8.73,0.34,0.2,34.51,34.51,34.51
-8.5,0.56,-0.13,31.43,31.43,31.43
-8.6,0.69,-0.15,29.68,29.68,29.68
-8.77,1.08,-0.31,27.72,27.72,27.72
-9,1.37,-0.84,23.8,23.8,23.8
-9.17,1.48,-1.18,18.27,18.27,18.27
-8.92,1.06,-1.77,13.23,13.23,13.23
-8.37,0.63,-2.06,14.77,15.26,15.26
-7.22,0.82,-1.39,19.88,20.51,20.51
-6.3,1,-1.52,25.83,25.83,26.46
-5.99,1.47,-1.1,29.19,30.17,30.8
-5.85,1.91,-0.12,34.44,36.05,36.05
-5.25,2.81,1,40.46,40.53,40.53
-5.69,3.36,1.68,35.35,35.35,35.35
-4.55,3.33,1.38,19.46,19.46,19.46
-2.11,2.74,0.86,0.56,0.56,0.56
-0.84,2.32,1.33,-7.35,-8.33,-8.33
-2.46,2.15,1.85,-34.58,-17.99,-17.99
-5.98,1.89,1.85,-26.6,-27.58,-27.58
-9.47,1.61,1.95,-33.53,-34.02,-34.02
-11.69,1.46,2.24,-35.14,-35.07,-34.79
-12.72,1.35,2.06,-33.25,-32.62,-32.62
-12.9,1.07,1.89,-24.99,-23.87,-23.87
-11.54,0.95,1.86,-14.77,-13.51,-13.51
-9.91,1.1,1.72,-5.88,-4.97,-4.97
-8.4,1.64,1.51,-0.28,0.07,0.07
-7.52,2.03,1.52,1.4,1.4,1.47
-7.11,2.39,1.39,1.05,0.91,0.91
-8.06,2.4,0.76,-8.12,-8.12,-8.75
-8.69,2.05,0.88,-15.33,-15.33,-15.33
-8.82,1.99,1.38,-18.97,-18.97,-18.97
-8.13,1.96,1.44,-19.81,-19.81,-19.81
-7.28,1.49,0.86,-17.99,-17.99,-17.99
-6.64,0.91,0.53,-14.21,-13.44,-13.44
-6.67,0.69,0.63,-6.93,-6.02,-6.02
-6.83,0.54,0.46,-0.14,-0.14,0.21
-7.53,0.61,0.14,2.17,2.59,2.73
-7.92,0.98,-0.28,3.01,2.66,2.45
-8.42,1.37,-0.17,0.14,-0.28,-0.28
-9.24,1.45,-0.13,-5.25,-5.25,-5.88
-8.84,1.52,0.01,-8.4,-9.31,-9.8
-8.23,1.69,0.13,-12.25,-13.3,-13.86
-8.35,1.79,0.36,-16.94,-16.94,-16.94
-8.53,1.62,0.49,-18.76,-18.97,-18.97
-8.17,1.76,0.84,-20.23,-20.23,-20.51
-8.83,1.74,1.2,-21.7,-21.7,-21.7
-8.87,1.51,0.96,-22.05,-22.05,-22.05
-9.24,1.49,1.34,-23.31,-23.31,-23.31
-9.32,1.35,1.4,-24.78,-25.06,-25.06
-9.56,1.38,1.57,-27.02,-27.02,-27.37
-10.16,1.23,1.68,-30.66,-30.66,-31.22
-9.91,1.08,1.89,-36.54,-36.54,-36.54
-10.07,0.81,1.87,-40.25,-40.25,-40.25
-10.19,0.56,1.78,-41.3,-41.3,-41.3
-9.95,0.27,1.72,-41.51,-41.51,-41.51
-9.68,0.03,1.59,-39.69,-39.69,-39.69
-9.87,-0.06,1.62,-37.24,-37.24,-37.24
-10.32,0.01,1.73,-33.25,-33.25,-33.25
-10.65,0.1,1.62,-26.11,-26.11,-26.11
-10.49,0.21,1.4,-22.12,-22.12,-21.49
-10.38,0.28,1.18,-16.94,-16.94,-16.31
-10.55,0.46,1.02,-10.64,-10.64,-10.08
-10.82,0.65,1.1,-4.55,-4.55,-4.55
-11.38,0.81,1.23,-1.05,0,0
-11.5,1,1.31,2.45,2.87,2.87
-11.61,1.2,1.2,3.64,3.71,3.71
-11.53,1.3,1.11,3.92,3.92,3.92
-10.92,1.46,1.12,3.71,3.5,3.5
-10.66,1.36,1.16,1.89,1.54,1.54
-10.47,1.35,1.28,-0.7,-1.26,-1.61
-10.28,1.34,1.36,-3.36,-3.36,-4.48
-10.2,1.14,1.49,-6.37,-6.65,-6.65
-9.9,1.01,1.43,-8.68,-8.68,-8.89
-9.95,1.03,1.49,-11.34,-11.34,-11.76
-9.95,0.82,1.5,-13.72,-13.72,-14
-9.87,0.45,1.54,-14.56,-14.56,-14.56
-9.61,0.1,1.53,-13.16,-13.16,-13.16
-9.47,0.17,1.49,-11.48,-11.48,-11.48
-9.65,0.27,1.66,-10.15,-10.01,-10.01
-9.73,0.29,1.67,-8.75,-8.47,-8.47
-10.09,0.29,1.67,-6.37,-6.37,-5.95
-10.15,0.31,1.69,-3.57,-3.57,-3.15
-9.98,0.48,1.66,0.07,0.07,0.42
-9.73,0.8,1.65,1.19,1.19,1.47
-9.92,1,1.72,1.96,1.96,1.96
-10.21,1.12,1.75,3.22,3.22,3.22
-10.28,1.34,1.84,3.99,3.99,3.99
-9.94,1.67,1.94,2.31,2.31,2.31
-9.34,1.96,1.98,-1.05,-1.05,-1.05
-9,2.1,2.1,-7.35,-7.35,-7.35
-9.4,1.9,2.4,-10.57,-10.57,-10.57
-9.74,1.75,2.73,-13.23,-13.3,-13.3
-9.96,1.73,2.89,-14.14,-14.63,-14.63
-9.72,1.49,3.08,-15.26,-15.26,-15.26
-9.69,1.21,2.98,-12.88,-12.88,-12.88
-9.9,1.01,3.06,-10.08,-9.24,-9.24
-10.63,0.82,3.25,-6.93,-5.46,-5.46
-11.42,0.6,3.41,-2.73,-2.31,-1.4
-11.64,0.54,3.62,1.47,2.1,3.22
-11.65,0.6,3.8,5.32,5.6,5.6
-11.82,0.6,3.93,7.56,7.63,7.63
-11.74,0.66,3.96,8.26,8.54,8.54
-11.72,0.67,3.97,8.4,8.4,8.4
-11.32,0.78,4.14,7.42,7.42,7.42
-10.97,0.8,4.16,6.09,6.09,6.09
-11.02,0.67,4.07,5.25,5.25,5.04
-10.98,0.59,3.95,3.85,3.85,3.85
-10.71,0.75,3.95,2.38,1.61,1.61
-10.93,0.86,3.98,-1.33,-2.45,-2.45
-10.98,0.83,3.91,-5.25,-5.25,-5.6
-10.91,0.74,3.7,-7.42,-7.42,-7.7
-10.68,0.73,3.56,-8.75,-8.75,-9.03
-10.98,0.53,3.34,-10.5,-10.5,-10.5
-11.42,0.3,3.16,-10.08,-10.08,-10.08
-11.76,0.31,3.11,-9.1,-9.1,-9.1
-11.75,0.45,3.08,-8.96,-8.96,-8.96
-9.93,0.11,2.51,-10.01,-10.01,-9.52
-9.87,0.02,2.05,-5.67,-5.67,-5.67
-10.38,0.06,2.06,-3.01,-2.1,-2.1
-10.58,0.03,1.92,0.91,2.24,2.24
-10.79,0.03,1.69,6.58,6.58,7.28
-10.69,-0.07,1.25,14,14,14
-10.59,-0.22,1.01,20.23,21.28,21.28
-10.53,-0.01,0.89,27.72,28.35,28.35
-10.46,0.18,0.69,33.04,33.04,33.39
-10.52,0.08,0.4,35.63,36.19,36.19
-10.39,0.27,0.38,38.43,38.43,38.36
-10.44,0.64,0.38,38.22,37.73,37.24
-10.77,1,0.38,34.51,33.25,32.62
-10.14,1.25,0.15,26.74,26.74,26.74
-9.32,0.85,-0.42,19.81,19.39,19.39
-8.82,0.36,-0.46,19.74,19.74,20.16
-8.82,0.33,-0.33,22.82,23.17,23.17
-8.96,0.31,-0.37,24.22,24.22,24.29
-8.49,0.03,-0.66,26.81,26.81,27.65
-8.33,-0.41,-0.69,33.53,33.53,34.79
-9.43,-0.55,-0.53,42.91,42.91,43.82
-10.01,-0.26,-0.39,50.4,50.4,50.4
-9.84,0.15,-0.4,51.8,52.01,52.01
-9.3,0.27,-0.54,52.22,52.43,52.43
-8.96,0.5,-0.52,52.57,52.57,52.36
-8.9,0.75,-0.47,50.4,50.4,50.26
-8.53,0.91,-0.17,47.25,46.9,46.9
-8.15,0.91,-0.25,44.1,44.1,43.47
-7.88,0.84,-0.44,39.2,39.2,39.2
-7.87,0.63,-0.11,35.56,35.56,35.56
-7.88,0.56,0,32.62,32.62,32.62
-7.98,0.71,0.27,30.87,30.31,30.31
-8.26,0.69,0.24,27.37,27.37,27.37
-8.14,0.59,-0.05,24.71,24.71,24.71
-8.87,0.33,-0.09,25.55,26.04,26.04
-9.14,0.15,0.02,27.51,27.51,28
-8.84,0.22,-0.27,29.82,29.96,29.96
-9.04,0.26,-0.45,29.4,29.4,29.33
-9.18,0.41,-0.36,28.21,27.93,28
-9.15,0.63,-0.23,27.09,27.09,26.39
-8.87,0.79,-0.02,24.99,24.99,24.78
-8.91,1.32,0.5,21.28,21.28,20.65
-8.55,1.4,0.56,14.91,14.91,13.93
-8.26,1.47,0.67,8.75,8.75,5.67
-7.07,1.48,0.54,-11.2,-11.2,-11.2
-7.31,1.33,0.67,-17.08,-18.69,-18.69
-7.9,1.26,0.72,-23.1,-23.1,-24.5
-8.35,1.16,0.76,-28.14,-28.14,-28.14
-9.68,0.7,0.54,-20.72,-19.95,-18.13
-9.69,0.67,-0.18,2.59,2.59,3.29
-9.69,1.13,0.29,6.23,6.23,6.23
-9.03,1.75,0.66,5.18,5.18,5.18
-7.82,2.22,0.64,2.8,2.8,2.8
-6.91,2.25,0.33,-0.84,-1.26,-1.26
-6.35,2.15,0.19,-2.45,-3.01,-3.01
-6.16,2.01,-0.15,-4.41,-4.41,-4.41
-6.79,1.97,-0.35,-7.91,-7.91,-7.91
-7.37,2.05,-0.22,-11.97,-11.97,-11.97
-7.64,1.89,-0.25,-16.1,-16.1,-16.1
-8.22,1.71,-0.29,-20.72,-21.07,-21.07
-8.24,1.44,-0.36,-22.96,-24.01,-24.01
-8.87,1,-0.54,-25.69,-26.18,-26.18
-8.93,0.86,-0.79,-28,-28,-28
-9.33,0.77,-0.46,-30.94,-30.94,-31.08
-9.38,0.73,-0.29,-31.57,-31.57,-31.64
-9.55,0.57,-0.61,-31.99,-31.99,-32.13
-9.38,0.42,-0.78,-32.9,-33.18,-33.25
-9.24,0.48,-0.63,-34.02,-34.3,-34.51
-9.5,0.55,-0.5,-36.19,-36.19,-36.19
-9.35,0.56,-0.67,-40.11,-40.6,-40.6
-9.57,0.58,-0.53,-42.98,-44.38,-44.38
-9.58,0.57,-0.41,-46.62,-48.09,-48.09
-9.28,0.55,-0.47,-50.47,-50.89,-51.73
-9.33,0.28,-0.2,-54.11,-54.11,-54.25
-9.54,0.16,-0.31,-53.55,-53.55,-53.34
-9.43,0.13,-0.57,-52.01,-52.01,-51.73
-9.6,0.01,-0.48,-50.68,-50.68,-50.19
-9.76,-0.37,-0.28,-47.74,-47.74,-47.74
-9.94,-0.44,-0.24,-41.16,-41.16,-41.16
-10.33,-0.33,-0.17,-35.49,-33.6,-33.6
-10.86,-0.34,0.14,-27.93,-27.93,-26.32
-10.61,-0.34,0.23,-21.7,-21.7,-21.7
-10.37,-0.18,0.55,-15.68,-15.68,-13.86
-10.8,-0.22,0.68,-7.35,-6.37,-6.37
-10.83,-0.25,1.05,0.28,0.28,0.98
-10.17,-0.02,1.23,3.64,3.64,3.85
-9.9,0.35,1.2,4.76,4.76,4.62
-10.29,0.41,1.54,3.64,3.64,3.64
-10.38,0.33,1.65,1.12,1.12,0.56
-10.43,0.29,1.87,-2.17,-2.17,-2.45
-10.8,0.22,1.92,-4.34,-4.34,-4.62
-10.81,0.31,1.9,-7,-7.91,-7.91
-10.76,0.54,2.04,-11.97,-11.97,-13.58
-11.31,0.44,2.24,-19.11,-19.11,-19.11
-11.22,0.24,2.19,-20.86,-20.86,-20.86
-11.14,0.18,2.03,-19.46,-19.32,-19.32
-11.12,0.17,1.96,-17.92,-17.78,-17.78
-10.81,0.22,1.84,-17.36,-17.43,-17.43
-10.52,0.2,1.63,-16.38,-16.38,-16.1
-10.53,0.16,1.54,-14.56,-14.07,-14.07
-10.7,0.07,1.37,-11.76,-11.76,-11.41
-10.83,0.05,1.17,-10.08,-10.08,-9.94
-10.94,-0.01,1.18,-9.73,-9.73,-9.87
-10.76,0.05,1.07,-9.45,-9.45,-9.45
-10.7,0.07,1.03,-9.03,-9.03,-9.03
-10.22,0.21,1.03,-8.82,-8.82,-8.82
-9.68,0.37,1.25,-8.19,-8.19,-8.19
-9.38,0.36,1.46,-7.56,-7.56,-7.56
-9.29,0.38,1.66,-7.56,-7.42,-7.42
-9.37,0.44,1.91,-7.98,-7.98,-7.91
-9.54,0.48,2.03,-8.19,-8.19,-8.19
-9.75,0.46,2.08,-7.77,-7.77,-7.84
-9.84,0.33,2,-6.3,-6.3,-6.09
-10.06,0.25,1.86,-3.57,-3.57,-3.57
-10.23,0.2,1.79,-2.31,-2.1,-2.1
-10.36,0.12,1.65,-1.75,-1.61,-1.61
-10.52,0.02,1.65,-1.26,-1.26,-1.05
-10.72,-0.08,1.57,-0.84,-0.84,-0.84
-11.07,-0.11,1.57,-2.31,-2.31,-2.31
-11.28,-0.25,1.85,-5.04,-5.04,-5.04
-11.08,-0.21,1.87,-4.83,-4.83,-4.83
-10.72,-0.04,1.99,-4.97,-5.25,-5.25
-10.25,0.17,2.24,-5.39,-5.39,-5.53
-9.75,0.34,2.47,-5.95,-5.95,-5.88
-9.41,0.4,2.66,-4.76,-4.76,-4.48
-9.45,0.54,2.89,-3.08,-3.08,-2.94
-9.61,0.57,3.01,-1.75,-1.75,-1.75
-9.94,0.57,3.27,-0.07,0,0
-10.2,0.51,3.34,1.12,1.12,1.12
-10.83,0.36,3.34,5.81,5.81,5.81
-10.99,0.44,3.35,7.84,8.12,8.12
-11.2,0.49,3.26,9.03,9.03,9.45
-11.08,0.59,3.15,10.78,11.06,11.06
-10.92,0.66,3.04,13.65,14.07,14.07
-10.83,0.96,3,16.66,16.73,16.73
-10.85,1.18,2.99,17.08,17.08,17.29
-10.73,1.34,2.77,17.78,17.78,17.92
-10.93,1.31,2.58,18.13,18.13,18.13
-11.05,1.3,2.32,18.34,18.34,18.34
-11.25,1.39,2.24,17.5,16.94,16.94
-11.28,1.35,2.04,14.91,14.91,14.35
-11.32,1.13,1.7,12.67,12.67,12.67
-11.6,0.73,1.33,9.94,9.94,9.94
-12.02,0.63,1.19,8.47,8.4,8.4
-11.94,0.7,0.74,5.6,5.6,5.11
-11.85,0.7,0.5,0.91,0.91,0.91
-11.83,0.71,0.13,-5.25,-6.09,-6.09
-11.77,0.27,-0.04,-11.97,-12.39,-12.39
-11.13,0.17,-0.03,-13.37,-13.23,-13.23
-10.58,-0.08,0.45,-10.92,-10.78,-10.78
-10.47,-0.18,0.6,-7.84,-7.84,-7.28
-10.35,-0.26,0.41,-4.06,-4.06,-3.29
-10.11,-0.54,0.39,-0.21,1.19,1.96
-9.82,-0.67,0.3,6.16,6.16,8.96
-9.94,-0.67,0.5,13.3,13.3,13.93
-10.19,-0.69,0.35,19.32,19.32,19.32
-10.15,-0.66,0.04,22.96,22.96,22.96
-10.04,-0.79,-0.02,24.36,24.78,24.78
-9.51,-1.01,-0.34,25.55,25.69,25.69
-9.3,-1.07,-0.62,27.93,27.93,28.21
-9.18,-0.91,-0.68,28.98,29.19,29.19
-8.94,-0.66,-0.78,28.07,27.86,27.86
-9.06,-0.66,-0.57,26.6,26.6,26.6
-9.16,-0.85,-0.69,31.64,32.62,33.04
-9.54,-0.56,-0.65,35.14,35.14,35.84
-9.58,-0.3,-0.86,36.75,36.75,36.89
-9.55,-0.03,-0.59,38.22,38.64,38.78
-9.5,0.04,-0.56,40.11,40.11,40.11
-9.19,0.01,-0.84,41.86,41.86,41.86
-8.91,-0.05,-0.59,42.49,42.49,42.56
-8.85,-0.31,-0.84,42.49,42.49,42.49
-8.61,-0.31,-0.71,41.23,41.23,41.23
-8.52,-0.42,-0.43,39.69,39.69,39.69
-8.25,-0.46,-0.43,36.96,36.96,36.96
-7.79,-0.63,-0.42,34.16,34.16,34.16
-6.81,-0.52,-0.34,33.53,33.53,33.53
-6.06,-0.28,-0.42,34.79,34.79,35
-5.62,-0.01,-0.18,37.45,37.45,37.87
-5.96,0.12,0.06,40.46,40.46,40.46
-7.14,0.61,0.67,43.19,43.19,43.19
-7.95,1.08,0.95,43.96,43.96,43.96
-8.14,1.56,1.13,40.81,40.81,40.32
-8.26,1.76,0.92,35.84,33.95,32.83
-7.86,1.83,0.44,27.16,27.16,23.31
-7.2,1.91,0.18,16.03,16.03,14.56
-6.99,1.81,-0.03,1.68,1.68,0.42
-7.14,1.79,-0.12,-7.98,-7.98,-9.1
-8.51,1.64,0.03,-13.3,-13.3,-15.47
-9.57,1.49,0.34,-17.85,-17.85,-18.06
-10.27,1.32,0.59,-17.43,-17.43,-17.08
-10.69,1.27,0.69,-15.19,-15.19,-14.84
-10.2,1.32,0.29,-11.97,-11.97,-11.97
-10.52,1.12,-0.02,-9.73,-9.03,-9.03
-10.86,0.88,-0.25,-6.09,-6.09,-6.09
-10.85,0.98,0.1,-2.1,-2.1,-2.1
-10.54,0.99,0.07,-0.63,-0.42,-0.42
-10.41,0.91,-0.21,0.21,0.21,0.21
-10.53,0.87,-0.06,-0.21,-0.21,-0.35
-10.67,0.78,0.08,-1.47,-1.47,-1.68
-10.57,0.84,0.1,-2.1,-2.38,-2.38
-10.49,1.04,0.29,-3.15,-3.15,-3.78
-10.43,1.12,0.38,-5.46,-5.46,-5.46
-10.09,1.1,0.46,-7.63,-7.63,-8.05
-9.92,0.85,0.61,-8.89,-8.89,-8.89
-9.66,0.63,0.67,-8.82,-8.75,-8.75
-9.4,0.52,0.71,-8.68,-8.68,-8.68
-8.96,0.33,0.72,-8.75,-8.61,-8.61
-9.08,0.2,0.73,-7.63,-7.28,-7.28
-9.25,0.1,0.81,-6.16,-5.32,-5.32
-9.41,0.04,0.94,-3.5,-3.5,-3.5
-9.25,0.05,0.79,-0.77,-0.77,-0.77
-9.15,0.03,0.78,1.4,1.4,1.4
-8.93,0.19,0.75,4.55,4.83,4.83
-8.95,0.39,0.72,5.88,6.16,6.16
-8.9,0.68,0.67,6.79,6.79,6.79
-8.71,0.79,0.46,6.3,6.3,6.3
-8.91,0.87,0.22,3.92,3.92,3.92
-8.68,0.96,0.24,2.1,1.54,1.54
-8.14,1.16,0.46,-0.21,-0.21,-0.77
-7.93,1.37,0.67,-2.52,-2.52,-3.15
-7.42,0.88,0.41,-12.32,-12.46,-12.46
-7.62,0.33,0.08,-22.12,-22.12,-22.12
-7.91,0.27,-0.05,-21.63,-21.7,-21.7
-7.85,0.57,-0.27,-21.7,-21.63,-21.63
-8.64,0.5,-0.18,-21.21,-21.21,-21
-7.37,0.35,-0.37,-20.16,-19.74,-19.46
-8.95,0.36,-0.42,-17.85,-17.85,-17.85
-9.8,0.33,0.05,-16.8,-16.73,-16.73
-9.65,0.44,-0.27,-15.26,-14.63,-14.63
-9.32,0.72,-0.53,-13.58,-13.58,-13.58
-9.71,0.65,-0.43,-13.65,-13.65,-13.65
-10.03,0.6,-0.3,-13.3,-13.3,-13.3
-9.86,0.59,-0.83,-12.39,-12.32,-12.32
-10.15,0.76,-0.85,-12.95,-13.16,-13.16
-11.08,0.91,-0.31,-16.66,-16.66,-17.22
-11.23,0.59,-0.38,-19.95,-19.95,-20.44
-11.03,0.26,-0.36,-20.37,-20.37,-20.37
-10.94,-0.02,-0.53,-19.11,-18.83,-18.83
-11.05,0.13,-0.32,-17.99,-17.99,-17.99
-11.1,0.13,-0.06,-18.34,-18.34,-18.34
-10.6,0.18,-0.01,-18.9,-18.9,-18.9
-10.83,0.45,0.18,-18.69,-18.62,-18.62
-11.51,0.73,0.34,-18.62,-18.62,-18.55
-11.51,0.92,0.56,-18.34,-18.34,-18.13
-11.14,0.9,0.74,-15.75,-15.75,-15.75
-10.9,1.09,0.77,-12.46,-11.34,-11.34
-11.17,1.22,0.86,-7.98,-7.56,-7.14
-11.42,1.19,0.85,-5.46,-5.46,-5.46
-11.03,1.01,0.79,-2.17,-2.17,-2.17
-10.57,0.92,0.85,1.4,1.4,1.4
-11.16,0.93,1.11,0.56,0.35,0.35
-10.95,0.92,1.11,-0.63,-0.77,-0.77
-10.45,0.85,0.93,-1.05,-1.05,-1.12
-9.73,0.81,0.84,-0.7,-0.56,-0.56
-9.71,1.02,0.96,-1.4,-1.4,-1.82
-10.25,1.06,1.2,-4.62,-4.62,-4.62
-10.32,0.76,1.04,-6.44,-6.44,-6.44
-10.45,0.45,1.01,-6.16,-6.16,-6.09
-10.37,0.45,1,-6.3,-6.3,-6.58
-10.47,0.55,1.07,-9.59,-9.59,-10.15
-10.45,0.53,1.07,-12.95,-12.95,-13.44
-10.29,0.29,1.04,-17.15,-17.15,-17.57
-10.15,0.12,1.05,-20.58,-20.58,-20.58
-9.95,0.1,1.09,-23.52,-23.52,-23.52
-9.89,0.2,1.17,-26.53,-27.02,-27.02
-9.98,0.21,1.37,-29.05,-29.05,-29.05
-10.1,0.17,1.59,-28.98,-28.77,-28.77
-10.52,0.11,1.74,-27.93,-27.37,-27.37
-10.79,0.14,1.94,-27.02,-26.95,-27.02
-10.78,0.04,2.06,-27.79,-27.72,-27.72
-10.62,-0.08,2.13,-28.63,-28.63,-28.84
-10.54,-0.12,2.12,-29.68,-30.38,-30.38
-10.5,-0.11,2.12,-32.06,-32.06,-32.06
-10.56,-0.17,2.31,-24.22,-23.38,-23.38
-10.51,-0.14,2.41,-19.67,-16.94,-16.94
-10.37,-0.11,2.62,-11.9,-9.73,-8.75
-10.18,0.15,2.9,-1.19,-1.19,-1.19
-10.06,0.44,3.15,6.72,6.72,7.56
-9.99,0.75,3.4,13.37,14.21,14.21
-9.97,1.06,3.67,18.9,18.9,19.32
-9.74,1.28,3.58,20.72,20.72,20.72
-9.73,1.34,3.38,20.58,20.58,20.58
-10.02,1.33,3.28,18.97,18.97,18.97
-10.32,1.23,3.17,16.03,16.03,16.03
-10.67,1.03,3.1,14.49,14.49,14.49
-10.82,0.83,2.77,12.88,12.81,12.81
-10.97,0.69,2.37,11.69,11.55,11.55
-11.15,0.77,2.35,10.57,10.36,10.36
-11.02,0.84,2.07,7.77,7.56,7.56
-11.06,0.75,1.84,5.81,5.53,5.53
-11.1,0.6,1.75,4.62,4.62,4.62
-10.98,0.48,1.54,4.13,4.13,4.13
-10.82,0.51,1.51,2.38,2.38,2.24
-10.85,0.43,1.5,0.98,0.77,0.77
-11.09,0.2,1.65,-0.7,-0.84,-0.84
-11.46,-0.1,1.78,-1.82,-1.82,-1.82
-11.49,-0.4,1.75,-2.38,-2.38,-2.24
-11.21,-0.49,1.75,-1.61,-1.61,-1.61
-11.36,-0.63,1.79,-1.19,-1.12,-1.12
-11.32,-0.63,1.69,-0.77,-0.77,-0.77
-10.94,-0.56,1.5,-1.61,-1.61,-1.61
-10.6,-0.5,1.25,-3.36,-3.36,-3.36
-10.21,-0.47,1.16,-4.97,-4.97,-4.97
-10.02,-0.57,1.12,-5.53,-5.53,-5.32
-9.85,-0.58,0.89,-4.41,-4.41,-4.41
-9.95,-0.85,0.65,-3.92,-3.92,-3.92
-9.83,-1.01,0.55,-1.75,-1.75,-1.4
-10.12,-1.08,0.53,2.94,2.94,2.94
-10.22,-1.07,0.38,6.23,6.23,6.23
-10.28,-0.99,0.37,7.98,8.54,8.54
-9.95,-0.87,0.18,10.43,10.78,10.78
-9.84,-0.78,-0.05,12.39,12.39,12.46
-9.93,-0.62,-0.12,12.32,12.18,12.04
-9.76,-0.31,-0.17,10.92,10.71,10.71
-9.82,-0.19,-0.07,8.54,8.54,8.54
-9.69,-0.14,-0.03,6.51,6.51,6.44
-9.38,-0.22,-0.06,6.51,6.51,6.51
-9.18,-0.3,-0.18,8.19,8.89,8.89
-9.38,-0.17,-0.14,11.06,11.06,11.83
-9.61,-0.01,0,13.02,13.02,13.3
-9.68,0.06,-0.05,14.28,14.28,14.56
-9.71,0.06,-0.19,15.61,15.61,15.61
-9.81,0.07,-0.01,15.89,15.89,15.89
-9.49,0.01,0.01,15.12,15.12,15.12
-9.28,-0.08,-0.04,16.03,16.03,16.03
-9.37,-0.15,-0.06,17.64,17.71,17.71
-9.49,-0.16,0.04,18.27,18.27,18.27
-9.1,-0.21,0.04,18.2,18.2,18.2
-9.05,-0.03,0.22,19.18,19.18,19.18
-9.06,-0.06,0.32,20.02,20.02,20.02
-9.05,-0.26,0.31,21.42,21.42,21.42
-8.78,-0.31,0.29,24.29,24.85,24.85
-8.12,-0.03,0.22,28,28.21,28.21
-7.86,0.13,0.42,29.12,29.12,29.12
-7.98,0.04,0.44,31.15,31.15,31.15
-8.19,-0.06,0.22,34.65,34.65,34.65
-8.11,-0.05,-0.02,38.5,39.69,39.69
-8.1,0.19,-0.13,43.26,43.26,43.75
-8.5,0.27,-0.23,46.69,46.69,46.69
-8.6,0.27,-0.18,49.21,49.21,49.21
-8.74,0.38,-0.39,67.2,67.48,67.48
-8.58,1.03,-0.33,67.06,67.06,66.85
-8.77,1.48,0.09,62.23,62.23,62.23
-8.9,1.89,0.31,58.1,56.14,56.14
-8.75,2.13,0.78,49.07,48.02,48.02
-8.19,2.58,1.06,37.52,37.52,37.52
-7.88,2.98,1.15,23.59,23.59,21.56
-8.08,3,1.15,3.85,3.85,3.85
-7.66,2.92,1.18,-9.52,-9.52,-9.52
-7.83,2.62,0.91,-24.92,-24.92,-24.92
-9.08,2.03,0.93,-33.39,-33.39,-33.39
-9.82,1.57,0.98,-40.81,-41.3,-41.3
-10.32,1.37,0.93,-43.05,-43.26,-43.26
-10.4,1.24,0.89,-42.63,-42.21,-41.51
-9.74,1.2,0.55,-33.11,-33.11,-33.11
-9.16,1.3,0.64,-27.02,-26.39,-26.39
-8.79,1.39,0.59,-22.68,-22.12,-22.12
-8.26,1.27,0.15,-19.81,-19.53,-19.53
-8.23,1.23,0.33,-23.03,-23.03,-24.15
-7.93,1.17,0.72,-25.48,-25.48,-25.62
-8.17,0.91,0.66,-26.6,-26.6,-26.74
-8.15,0.88,0.35,-28.07,-28.07,-28.42
-7.6,0.85,0.21,-30.38,-30.66,-30.66
-7.36,0.77,0.35,-32.83,-32.83,-32.97
-7.91,0.37,0.12,-34.72,-34.72,-34.86
-7.68,0.17,-0.09,-34.86,-34.86,-34.86
-8.46,-0.14,-0.14,-36.33,-36.33,-36.33
-8.16,-0.26,-0.27,-36.75,-36.68,-36.68
-8.72,-0.46,-0.12,-35.63,-35.14,-34.86
-9.26,-0.66,-0.1,-32.9,-32.9,-32.9
-8.62,-0.45,-0.12,-30.24,-29.82,-29.82
-8.83,-0.46,0.4,-27.44,-27.09,-27.09
-8.75,-0.53,0.21,-23.87,-23.24,-23.24
-8.3,-0.38,0.04,-21.14,-20.16,-20.16
-8.19,-0.51,0.18,-19.18,-18.97,-18.76
-8.07,-0.43,0.34,-17.64,-17.64,-17.29
-8.33,-0.22,0.18,-10.15,-10.15,-10.01
-9.15,-0.02,0.72,-10.01,-10.01,-10.15
-9.69,-0.02,0.74,-10.43,-10.43,-10.22
-9.51,0.03,0.37,-9.1,-8.47,-8.19
-10.3,-0.09,0.45,-5.6,-5.6,-5.6
-10.79,-0.23,0.42,-2.94,-2.94,-2.94
-10.77,-0.28,0.11,-0.42,-0.42,-0.42
-11.14,-0.6,-0.03,1.47,1.47,2.03
-10.91,-0.94,-0.53,4.13,4.13,4.13
-11.23,-1.14,-0.35,8.47,8.47,8.47
-11.65,-0.96,-0.21,10.85,10.85,10.85
-11.89,-1.16,-0.36,8.12,8.12,7.7
-11.73,-1.45,-0.28,6.72,6.72,6.72
-11.68,-1.46,-0.33,5.81,5.81,5.81
-11.89,-1.26,-0.3,3.5,2.8,2.8
-11.14,-0.19,0.66,-10.57,-10.57,-10.57
-10.74,0.07,0.92,-13.09,-13.65,-13.65
-10.38,0.11,1.19,-14.63,-14.63,-14.98
-9.88,0.05,1.35,-15.68,-15.68,-15.68
-9.4,0.24,1.37,-16.1,-16.1,-16.45
-9.85,0.3,1.57,-17.64,-17.78,-17.78
-10.16,0.45,1.73,-19.39,-19.39,-19.39
-10.43,0.29,1.67,-21.21,-21.28,-21.28
-10.33,0.19,1.65,-21.63,-21.63,-21.63
-10.19,0.04,1.54,-21.28,-21.28,-21.28
-10.13,0,1.53,-21.28,-21.28,-21.28
-9.97,0.01,1.46,-21,-21,-21
-10.09,-0.03,1.52,-19.95,-19.95,-19.95
-10.1,-0.03,1.62,-18.48,-18.27,-18.27
-10.04,0.03,1.67,-17.29,-16.73,-16.73
-10.1,0.14,1.84,-15.75,-15.19,-15.19
-10.12,0.27,1.98,-14.35,-14,-14
-10.17,0.43,2.16,-13.3,-13.16,-13.02
-10.23,0.45,2.26,-12.53,-12.39,-12.11
-10.56,0.59,2.45,-11.34,-11.34,-11.27
-10.76,0.6,2.6,-10.15,-10.15,-10.15
-10.79,0.66,2.7,-10.01,-10.01,-10.08
-10.86,0.62,2.8,-10.85,-10.85,-11.06
-10.89,0.56,2.98,-11.76,-11.76,-11.76
-10.88,0.58,3.09,-12.67,-12.67,-12.67
-10.8,0.53,3.27,-15.61,-15.61,-15.61
-10.77,0.46,3.31,-17.5,-17.5,-17.5
-10.78,0.32,3.46,-18.41,-18.41,-18.41
-10.8,0.08,3.65,-17.64,-17.64,-17.5
-10.7,-0.1,3.73,-14.56,-14.56,-14.56
-10.47,-0.28,3.7,-10.43,-10.43,-10.43
-10.25,-0.53,3.52,-2.87,-2.87,-2.87
-10.02,-0.67,3.4,2.73,2.73,2.73
-9.82,-0.63,3.29,7.42,9.03,9.03
-9.86,-0.73,3,12.11,12.11,12.11
-10.18,-0.84,2.75,14.77,14.77,14.77
-10.65,-0.83,2.58,15.61,15.61,15.61
-11.11,-0.78,2.46,14.21,14.21,14.07
-11.51,-0.83,2.38,12.18,12.18,11.97
-11.47,-0.92,2.03,9.59,9.59,9.59
-11.35,-0.93,1.79,8.4,7.91,7.91
-11.11,-0.76,1.6,4.97,4.97,4.48
-10.49,-0.62,1.21,-8.96,-8.96,-10.08
-10.61,-0.65,1.04,-13.72,-14.21,-14.21
-11.13,-0.81,1.15,-17.92,-35.84,-18.13
-11.17,-0.75,1.07,-19.32,-19.32,-19.67
-11.32,-0.68,0.94,-20.02,-20.02,-20.02
-11.77,-0.44,0.96,-22.05,-22.05,-22.19
-12.21,-0.34,1.03,-23.73,-23.73,-23.94
-12.06,-0.39,1.2,-23.8,-23.8,-23.73
-11.44,-0.49,1.31,-23.17,-22.89,-22.61
-10.9,-0.74,1.23,-20.86,-20.86,-20.37
-10.59,-1,1.32,-13.93,-13.93,-12.95
-10.52,-0.92,1.73,-7.49,-7.49,-6.86
-10.5,-0.78,2.03,-3.29,-3.29,-2.73
-9.75,-0.81,1.93,0.42,0.42,0.98
-9.11,-0.95,1.67,6.58,6.58,6.58
-8.69,-1.13,1.45,11.2,11.2,11.83
-8.95,-1.22,1.58,17.78,17.78,17.78
-9.55,-1.31,1.55,23.1,23.1,23.1
-9.33,-1.14,1.28,28.35,29.47,29.47
-8.87,-1.08,0.9,32.2,32.2,32.9
-8.48,-1.04,0.4,35.42,35.42,35.42
-8.8,-1.07,0.24,39.97,41.09,41.09
-9.5,-0.98,0.11,45.57,45.57,46.2
-9.82,-0.68,-0.31,51.59,51.59,51.59
-9.91,-0.26,-0.54,54.04,54.74,54.74
-10.2,-0.06,-0.71,57.12,58.17,58.17
-10.25,0.14,-0.73,61.04,61.04,62.16
-10.28,0.44,-0.77,64.82,65.17,65.17
-10.16,0.64,-0.97,65.17,65.17,65.1
-10,0.65,-1,63.84,63.84,63.77
-9.82,0.74,-1.03,61.53,61.53,61.25
-9.71,0.84,-0.9,59.5,58.66,58.66
-9.28,0.89,-0.67,54.74,54.74,54.25
-8.82,0.88,-0.54,48.37,48.37,48.37
-8.52,0.7,-0.39,44.73,44.17,44.17
-8.31,0.33,-0.35,39.41,39.41,39.41
-8.37,0,-0.32,36.68,36.68,36.68
-8.16,-0.12,-0.07,34.65,34.65,34.65
-8.08,-0.1,-0.15,33.88,33.53,33.53
-8.33,-0.02,-0.18,31.71,31.71,31.08
-8.75,-0.61,-0.4,29.19,29.19,29.19
-8.9,-0.67,-0.45,32.34,32.34,32.34
-8.73,-0.64,-0.49,35.35,35.35,35.35
-8.31,-0.51,-0.46,37.45,37.45,37.45
-8.21,-0.68,-0.81,41.23,41.86,41.86
-7.97,-0.82,-1,45.57,46.27,46.27
-7.73,-0.66,-0.89,53.48,53.48,54.39
-7.71,-0.54,-0.73,60.76,60.76,61.46
-8.08,0.07,-0.51,64.96,64.96,65.17
-7.81,0.86,-0.41,66.36,66.36,66.36
-7.75,1.51,-0.53,64.33,64.33,64.33
-8.12,2.04,-0.58,57.19,56.07,56.07
-8.33,2.36,-0.45,50.33,46.69,46.69
-8.62,2.46,-0.19,39.55,38.01,34.79
-8.88,2.52,-0.24,22.75,22.75,22.75
-9.26,2.25,-0.08,7,7,5.25
-9.86,2.09,-0.01,-3.36,-6.58,-8.19
-10.17,2.04,-0.11,-17.85,-17.85,-17.85
-10.43,1.86,-0.14,-25.55,-25.55,-25.55
-10.45,1.47,-0.17,-30.03,-30.17,-30.17
-10.56,1.36,-0.1,-30.52,-30.52,-30.52
-10.27,1.15,-0.18,-28.98,-28.7,-28.7
-10.06,1.05,-0.1,-26.11,-26.11,-25.9
-9.81,1,0.05,-24.29,-24.29,-24.29
-9.67,0.93,0.04,-20.37,-20.37,-20.37
-9.46,0.87,-0.06,-17.29,-17.29,-17.29
-9.3,0.77,0.1,-14.91,-14.91,-14.91
-9.41,0.75,0.28,-12.04,-12.04,-12.04
-9.51,0.73,0.47,-10.43,-10.43,-10.43
-9.73,0.72,0.43,-10.01,-9.94,-9.94
-9.74,0.67,0.42,-10.08,-10.08,-10.01
-9.73,0.78,0.51,-9.66,-9.66,-9.52
-9.66,0.92,0.56,-9.52,-9.52,-9.45
-9.51,0.94,0.54,-9.52,-9.52,-9.66
-9.4,0.96,0.62,-10.29,-10.29,-10.29
-9.03,0.99,0.81,-11.48,-11.48,-11.48
-8.93,0.91,0.73,-12.6,-13.23,-13.23
-8.75,0.81,0.35,-15.4,-15.4,-16.1
-8.51,0.67,0.16,-17.78,-17.78,-17.78
-8.37,0.57,0.28,-18.9,-18.9,-18.9
-8.49,0.48,0.42,-18.9,-18.9,-18.76
-8.57,0.31,0.35,-18.13,-18.13,-18.13
-8.51,0.23,0.24,-18.2,-18.2,-18.2
-8.32,0.25,0.31,-17.57,-17.57,-17.57
-8.5,0.26,0.35,-15.26,-15.26,-15.26
-9,0.22,0.09,-14.91,-15.19,-15.19
-8.83,0.26,-0.16,-16.8,-16.8,-16.8
-8.72,0.31,0,-18.27,-18.34,-18.34
-9.16,0.25,0.07,-18.76,-18.76,-18.83
-9.45,0.23,0.01,-21,-21,-21.35
-9.1,0.27,-0.02,-23.45,-23.52,-23.52
-9.29,0.2,0.26,-25.41,-25.41,-25.41
-9.28,0.23,0.2,-26.74,-26.74,-27.02
-9.03,0.21,0.25,-28.35,-28.35,-28.49
-9,0.21,0.5,-28.84,-28.84,-28.84
-8.67,0.22,0.45,-28.07,-28.07,-28.07
-8.62,0.17,0.45,-27.3,-26.95,-26.95
-8.32,0.15,0.37,-25.76,-25.48,-25.48
-8.46,-0.01,0.45,-23.24,-22.61,-22.26
-8.36,-0.17,0.14,-20.37,-20.37,-19.46
-8.53,-0.18,0.1,-17.01,-17.01,-17.01
-8.71,-0.15,-0.1,-14.35,-14.35,-14.35
-9.04,-0.11,-0.29,-13.58,-13.58,-13.58
-9.46,-0.09,-0.33,-14.77,-14.77,-14.84
-9.89,-0.1,-0.29,-15.54,-15.54,-15.54
-10.35,-0.3,-0.1,-16.03,-16.03,-16.17
-10.17,-0.38,-0.36,-15.61,-15.61,-15.61
-10.16,-0.31,-0.45,-15.75,-15.75,-15.82
-10.18,-0.25,-0.47,-16.59,-16.59,-16.59
-10.35,-0.21,-0.23,-18.97,-18.97,-18.97
-10.46,-0.42,-0.19,-19.32,-19.18,-19.18
-10.43,-0.74,-0.33,-17.43,-17.43,-17.43
-10.39,-0.93,-0.45,-15.82,-15.61,-15.61
-10.19,-0.99,-0.43,-13.44,-13.16,-13.16
-10.27,-1,-0.42,-11.48,-11.34,-11.34
-10.5,-1.1,-0.3,-11.2,-11.34,-11.34
-10.51,-1.21,-0.32,-11.55,-11.48,-11.48
-10.61,-1.5,-0.47,-10.08,-10.08,-9.73
-10.79,-1.69,-0.55,-7.98,-7.98,-7.7
-11.07,-1.73,-0.48,-7.07,-7.07,-6.93
-11.33,-1.69,-0.43,-6.09,-6.09,-6.09
-11.4,-1.73,-0.44,-5.46,-5.46,-5.53
-11.21,-1.82,-0.39,-5.39,-5.39,-5.39
-10.75,-1.75,-0.28,-5.67,-5.67,-5.67
-10.87,-1.71,-0.09,-5.95,-6.16,-6.16
-11.05,-1.47,0.22,-7.56,-7.91,-7.91
-10.74,-1.16,0.37,-10.85,-10.85,-11.48
-10.18,-1.01,0.42,-13.23,-13.23,-13.72
-9.89,-1.08,0.45,-17.71,-17.71,-35.63
-9.59,-1.05,0.47,-20.51,-20.51,-20.51
-9.57,-0.85,0.68,-23.03,-23.45,-23.45
-9.7,-0.86,0.95,-28.63,-28.7,-28.84
-9.62,-1.02,0.87,-28.49,-28.49,-28.14
-9.69,-1.19,0.87,-27.23,-27.23,-26.95
-9.7,-1.18,0.67,-24.78,-24.5,-24.5
-10.37,-0.88,0.57,-13.72,-13.72,-13.72
-10.38,-0.74,0.46,-8.54,-8.05,-8.05
-10.38,-0.53,0.46,-5.25,-4.76,-4.76
-10.32,-0.39,0.42,-2.31,-1.89,-1.89
-10.22,-0.22,0.37,0,0.42,0.63
-10.13,0.03,0.46,1.33,1.33,1.61
-10.08,0.15,0.54,1.89,1.89,1.89
-10.14,0.25,0.66,2.17,2.17,2.17
-10.16,0.33,0.82,2.52,2.52,2.52
-10.19,0.38,0.93,2.66,2.66,2.66
-10.2,0.39,1.2,2.87,2.87,2.87
-10.51,0.47,1.35,3.15,2.87,2.87
-10.85,0.51,1.63,2.03,1.89,1.89
-10.95,0.57,1.87,-0.84,-0.84,-0.84
-10.97,0.54,2.01,-5.46,-5.88,-5.88
-10.75,0.58,2.2,-8.82,-9.1,-9.1
-10.4,0.67,2.45,-11.41,-11.41,-11.69
-10.16,0.68,2.79,-13.93,-13.93,-13.93
-10.14,0.65,2.93,-14.07,-14.07,-13.93
-10.08,0.65,3.2,-13.09,-13.09,-13.09
-10.09,0.62,3.4,-11.2,-11.2,-11.2
-10.04,0.63,3.55,-8.82,-8.82,-8.82
-9.84,0.56,3.53,-6.58,-6.58,-6.58
-9.69,0.37,3.37,-4.9,-4.9,-4.9
-9.54,0.15,3.15,-3.08,-3.08,-3.08
-9.42,-0.03,2.93,-1.61,-1.61,-1.61
-9.46,-0.24,2.87,-0.28,-0.28,-0.28
-9.65,-0.42,2.85,0.77,1.05,1.05
-9.76,-0.53,2.89,2.1,2.59,2.59
-9.89,-0.71,2.92,3.71,4.06,4.06
-9.83,-0.79,2.8,5.18,5.39,5.74
-9.77,-0.79,2.63,6.58,6.72,6.72
-9.78,-0.78,2.64,7.42,7.42,7.42
-9.97,-0.85,2.62,7.63,7.63,7.63
-10,-0.86,2.75,8.19,8.33,8.33
-10.02,-0.77,2.85,8.89,8.89,8.89
-10.02,-0.65,2.83,8.19,8.19,8.19
-10.13,-0.56,2.74,6.93,6.79,6.79
-10.33,-0.67,2.72,5.11,5.11,5.11
-10.51,-0.73,2.69,4.62,4.41,4.2
-10.73,-0.74,2.66,3.08,3.08,3.08
-10.6,-0.66,2.56,0.77,0.77,0.42
-10.42,-0.57,2.58,-1.26,-2.03,-2.52
-10.12,-0.5,2.53,-4.48,-4.48,-5.67
-10.14,-0.53,2.45,-7.56,-7.56,-7.98
-10.33,-0.59,2.45,-10.43,-11.06,-11.2
-10.24,-0.66,2.68,-11.83,-11.83,-11.9
-10.26,-0.67,2.72,-11.9,-11.9,-11.9
-10.51,-0.56,2.77,-11.48,-11.41,-11.41
-10.38,-0.45,2.84,-10.64,-10.64,-10.01
-10.26,-0.4,2.82,-7.77,-7.49,-7.49
-10.25,-0.41,2.75,-4.41,-4.41,-4.06
-10.27,-0.44,2.64,-2.59,-2.03,-1.89
-10.48,-0.42,2.76,-0.42,-0.42,-0.42
-10.25,-0.34,2.46,1.19,1.47,1.47
-10.38,-0.24,2.27,1.96,1.96,1.96
-11.05,-0.25,2.31,2.1,2.66,2.66
-11.54,-0.34,2.25,4.48,4.83,5.74
-11.52,-0.2,1.87,8.12,8.54,8.54
-11.3,0.08,1.58,9.73,9.8,9.8
-11.1,0.22,0.95,6.58,6.58,6.23
-10.85,0.06,0.75,4.83,4.83,4.83
-10.8,-0.22,0.48,4.9,4.9,4.9
-10.89,-0.42,0.44,5.88,6.23,6.23
-11.16,-0.49,0.46,7.49,7.7,7.7
-11.42,-0.64,0.3,9.31,9.94,9.94
-11.19,-0.99,-0.11,13.3,13.3,13.3
-10.84,-0.95,-0.18,19.04,19.04,19.04
-10.6,-0.9,-0.19,22.26,22.26,23.24
-10.6,-0.89,-0.36,25.76,25.76,25.76
-10.65,-1.06,-0.31,29.82,29.82,29.82
-10.27,-0.9,-0.33,32.55,32.55,32.55
-9.82,-0.49,-0.34,32.9,32.9,32.9
-9.32,-0.23,-0.47,30.38,30.38,30.38
-8.71,-0.19,-0.49,27.72,27.72,27.72
-7.99,-0.26,-0.82,26.67,26.67,26.67
-7.58,-0.23,-0.78,27.09,27.3,27.3
-7.81,-0.01,-0.52,27.86,28,28
-8.12,0.05,-0.42,28.42,28.42,28.42
-8.36,-0.05,-0.45,29.33,29.33,29.47
-8.29,-0.14,-0.61,31.43,31.43,31.43
-8.56,-0.32,-0.33,35.28,35.28,35.28
-9,-0.4,-0.23,37.94,37.94,37.94
-9.19,-0.42,-0.23,39.83,39.83,39.83
-8.77,-0.24,-0.17,41.16,41.16,41.16
-8.59,-0.34,0.09,40.81,40.46,40.46
-8.18,-0.34,0.27,40.32,40.32,40.39
-8.19,-0.26,0.42,41.09,41.23,41.44
-8.49,-0.14,0.56,41.93,41.93,41.93
-8.38,0.16,0.58,41.79,41.72,41.72
-9.09,0.09,0.55,40.74,40.74,40.74
-9.78,-0.21,0.67,40.88,40.88,40.95
-9.81,-0.4,0.62,43.26,43.26,43.89
-10.23,-0.38,0.5,47.11,47.74,47.74
-10.31,-0.22,0.48,50.96,50.96,51.38
-10.11,0.29,0.41,54.53,54.53,54.74
-9.69,0.58,0.43,56.14,56.14,56.42
-9.07,0.77,0.45,57.47,58.03,58.03
-8.55,0.92,0.65,59.22,59.22,59.43
-8.08,0.9,0.64,59.22,59.22,59.22
-7.73,1.11,0.98,55.86,55.86,55.86
-7.39,1.76,1.26,51.45,50.61,50.61
-7.03,2.75,1.58,42.28,42.28,42.28
-7.39,3.01,1.4,6.09,3.22,1.75
-7.81,2.73,1.3,-5.11,-7.7,-8.96
-8.67,2.3,1.35,-16.87,-16.87,-16.87
-9.36,1.79,1,-23.45,-23.45,-23.94
-9.82,1.49,0.87,-26.74,-26.74,-26.74
-10.41,1.21,0.94,-27.09,-26.88,-26.88
-10.63,1.05,0.98,-25.9,-25.9,-25.27
-10.13,0.99,0.61,-23.1,-23.1,-23.1
-9.88,0.96,0.52,-19.74,-19.74,-19.74
-9.64,1.02,0.68,-18.55,-18.27,-18.27
-9.28,1.15,0.78,-18.2,-18.2,-18.48
-8.62,1.21,0.66,-19.39,-19.39,-19.39
-8.5,1.15,0.45,-20.3,-20.44,-20.93
-8.53,1.13,0.46,-21.77,-21.91,-21.91
-8.78,0.96,0.32,-24.15,-24.43,-24.43
-9.24,0.74,0.08,-26.53,-26.95,-26.95
-8.86,0.74,0.21,-28.07,-28.28,-28.28
-8.57,0.81,0.33,-28.28,-28.28,-28.28
-8.76,0.67,0.01,-28.77,-28.77,-28.84
-8.74,0.39,0.01,-29.4,-29.4,-29.4
-8.64,0.39,0.03,-27.58,-27.09,-27.09
-8.78,0.45,-0.06,-26.25,-26.25,-26.25
-8.69,0.3,-0.2,-26.6,-26.6,-26.6
-8.35,-0.05,-0.35,-25.69,-25.69,-25.34
-8.62,-0.29,-0.11,-22.68,-22.68,-22.19
-8.8,-0.08,-0.02,-19.46,-19.46,-19.46
-8.69,0.25,0.13,-18.97,-19.11,-19.11
-8.86,0.35,0.21,-19.88,-20.37,-20.37
-9,0.33,0.33,-20.58,-20.44,-20.44
-8.73,0.2,0.35,-19.67,-19.32,-18.76
-9.02,0.07,0.58,-16.87,-16.38,-16.38
-9.17,0.12,0.52,-12.81,-12.53,-12.53
-9.1,0.23,0.46,-10.92,-10.92,-10.92
-9.25,0.23,0.58,-10.01,-10.01,-10.01
-9.13,0.27,0.5,-8.96,-8.96,-8.96
-8.89,0.31,0.29,-8.12,-8.12,-8.12
-9.46,0.47,0.48,-8.47,-8.47,-8.47
-9.78,0.46,0.41,-10.5,-10.85,-10.85
-9.65,0.33,0.14,-14.28,-14.42,-14.42
-9.75,0.33,0.03,-15.05,-15.05,-15.05
-10.56,0.31,0.42,-15.26,-15.33,-15.33
-10.62,0.42,0.61,-17.15,-17.15,-17.36
-10.49,0.35,0.71,-18.06,-18.06,-18.06
-10.16,0.35,0.81,-16.8,-16.8,-16.8
-9.96,0.42,1.06,-14.49,-14.49,-14.49
-9.6,0.39,1.2,-12.53,-12.53,-12.53
-9.4,0.38,1.38,-11.13,-10.64,-10.64
-9.5,0.33,1.58,-8.75,-8.12,-8.12
-9.57,0.3,1.45,-6.58,-6.58,-6.37
-9.52,0.25,1.54,-5.25,-5.25,-5.25
-9.65,0.16,1.71,-4.97,-4.97,-4.97
-10.04,0.13,1.79,-4.69,-4.69,-4.83
-10.5,0.17,1.85,-5.11,-5.11,-5.11
-10.72,0.12,1.72,-6.3,-6.86,-6.86
-10.64,0.04,1.5,-8.89,-9.66,-9.66
-10.86,-0.03,1.67,-12.18,-12.18,-12.46
-11.09,-0.05,1.87,-16.38,-16.38,-16.38
-11.04,-0.12,1.76,-20.79,-20.79,-20.79
-10.57,-0.11,1.48,-26.88,-26.88,-26.88
-10.17,-0.19,1.33,-30.94,-31.64,-31.64
-10.26,-0.33,1.23,-37.03,-37.03,-37.59
-10.38,-0.36,1.23,-40.95,-40.95,-41.44
-10.29,-0.41,1.18,-43.19,-43.19,-43.33
-10.27,-0.58,1.09,-44.1,-44.1,-44.1
-9.73,-0.63,0.89,-43.61,-43.05,-43.05
-9.71,-0.67,0.61,-41.23,-41.23,-40.46
-10.05,-0.69,0.45,-36.12,-36.12,-36.12
-10.24,-0.66,0.29,-30.52,-30.52,-30.52
-10.29,-0.65,0.15,-26.32,-24.78,-24.78
-10.17,-0.54,-0.04,-19.6,-18.83,-18.83
-10.3,-0.36,-0.26,-10.29,-10.29,-9.87
-10.47,-0.45,-0.29,-7.49,-7.49,-6.16
-10.68,-0.67,-0.26,-3.22,-3.22,-3.22
-10.86,-0.78,-0.16,0.21,0.56,0.56
-10.67,-0.29,0.14,1.05,0.91,0.91
-10.47,-0.15,0.15,0.42,0.35,0.35
-10.38,-0.14,0.23,0.28,0.35,0.35
-10.43,-0.2,0.22,1.05,1.05,1.19
-10.84,-0.25,0.36,1.61,1.61,1.54
-11.37,-0.34,0.46,0.84,0.84,0.84
-11.85,-0.5,0.67,-0.49,-0.49,-0.56
-11.99,-0.58,0.83,-1.05,-1.05,-1.05
-11.77,-0.69,0.97,-2.1,-2.1,-2.1
-11.4,-0.7,1.02,-3.29,-3.36,-3.36
-10.84,-0.7,1.24,-4.9,-4.9,-5.04
-10.19,-0.86,1.3,-5.46,-5.67,-5.74
-9.72,-1.13,1.37,-5.6,-5.53,-5.53
-9.33,-1.25,1.51,-4.76,-4.76,-4.55
-9.23,-1.42,1.65,-2.73,-2.73,-2.45
-9.39,-1.57,1.74,-1.05,-1.05,-1.05
-9.53,-1.78,1.76,1.26,1.54,1.54
-9.58,-1.9,1.73,3.71,3.71,3.71
-9.66,-1.98,1.71,6.02,6.02,6.3
-9.87,-2.01,1.56,7.21,7.21,7.21
-9.8,-2.04,1.39,7.84,7.84,7.84
-9.99,-1.99,1.33,8.75,8.75,8.75
-10.22,-1.84,1.32,8.61,8.61,8.61
-10.47,-1.75,1.29,7.98,7.98,7.98
-10.73,-1.59,1.27,7.35,7.07,7.07
-10.97,-1.43,1.18,6.37,6.37,6.37
-11.08,-1.15,1.19,6.02,6.02,6.02
-11.27,-0.89,1.22,5.88,5.81,5.81
-11.28,-0.64,1.32,5.6,5.39,5.39
-11.19,-0.37,1.34,5.46,5.46,5.46
-11.21,-0.07,1.41,4.83,4.83,4.83
-11.09,0.08,1.49,3.99,3.99,3.99
-11.2,0.24,1.51,3.5,3.5,3.29
-11.56,0.32,1.7,2.87,2.94,2.94
-11.39,0.5,1.65,3.22,3.29,3.29
-11.36,0.68,1.65,3.22,3.22,3.22
-11.46,0.88,1.6,1.68,0.91,0.42
-11.48,0.81,1.45,-1.89,-2.24,-3.29
-11.2,0.8,1.43,-6.72,-6.72,-7.35
-10.91,0.82,1.4,-12.53,-12.53,-12.53
-10.62,0.7,1.47,-14.98,-15.68,-15.68
-10.26,0.57,1.59,-16.94,-16.94,-17.01
-10.2,0.47,1.78,-16.24,-16.24,-16.24
-10.18,0.54,1.77,-14.42,-13.79,-13.79
-10.45,0.57,1.88,-11.83,-11.41,-11.41
-10.45,0.72,1.84,-10.15,-10.15,-9.87
-10.25,0.66,1.77,-8.96,-8.96,-8.96
-10.21,0.38,1.72,-5.6,-5.6,-5.6
-10.32,0.15,1.59,-2.52,-1.54,-1.54
-10.49,-0.06,1.46,2.38,2.38,3.71
-10.28,-0.1,1.1,7.35,7.35,8.61
-9.8,-0.03,0.7,13.44,13.44,13.44
-9.66,-0.06,0.45,17.64,18.2,18.2
-9.71,-0.08,0.12,23.59,24.15,24.15
-9.53,0.1,-0.06,27.72,27.72,28.14
-9.41,0.21,-0.17,30.17,30.38,30.38
-9.25,0.4,-0.27,32.06,32.06,32.2
-9.07,0.47,-0.38,32.9,32.9,32.9
-9.02,0.56,-0.56,34.23,34.37,34.93
-9.15,0.63,-0.57,35.98,36.19,36.19
-9.11,0.98,-0.62,36.96,36.89,36.89
-9.03,1.37,-0.37,34.72,34.72,34.72
-9.3,1.5,-0.24,30.17,29.61,29.61
-9.45,1.38,-0.22,26.6,25.34,25.34
-9.33,1.08,-0.47,24.08,24.01,23.94
-9.41,0.83,-0.32,24.08,24.08,24.64
-9.76,0.92,0.05,26.88,26.88,27.16
-9.8,1.32,0.23,27.72,27.72,27.58
-9.8,1.5,0.27,23.31,23.31,23.31
-9.21,1.46,0.09,20.72,20.23,20.23
-9,1.12,-0.06,19.39,19.39,19.53
-9.25,0.62,-0.11,20.23,20.3,20.3
-9.36,0.28,-0.11,22.12,22.12,22.4
-8.99,0.06,-0.22,24.36,24.78,24.78
-8.73,0.08,-0.19,27.79,27.79,28.35
-8.82,0.16,0.04,30.73,30.73,30.8
-8.62,0.27,0.1,31.92,31.92,32.27
-8.54,0.27,0.2,35,35,35
-8.76,0.16,0.11,36.26,36.47,36.47
-8.8,0.17,-0.15,37.38,37.38,37.38
-8.54,0.03,-0.43,38.57,38.57,38.57
-8.06,0.24,-0.48,40.04,40.04,40.04
-7.73,0.45,-0.34,40.53,40.53,40.53
-7.81,0.54,-0.44,39.34,39.34,39.34
-7.92,0.33,-0.45,41.02,41.02,41.02
-8.01,0.07,-0.53,46.27,46.27,46.27
-8.55,0.1,-0.46,53.76,53.76,53.76
-8.79,0.62,-0.54,55.3,55.3,55.3
-9.12,1.31,-0.2,53.9,53.9,53.9
-9.3,1.79,-0.05,49.14,49.14,49.14
-9.1,2.12,-0.07,40.32,40.32,40.32
-8.59,2.46,0.11,30.73,30.73,30.73
-8.82,2.74,0.44,20.02,20.02,20.02
-8.29,2.85,0.4,4.27,2.45,2.45
-8.1,2.77,0.23,-9.38,-9.38,-9.38
-8.58,2.62,0.34,-21.35,-21.35,-21.35
-9.24,2.34,0.57,-32.69,-32.69,-32.69
-9.99,1.98,0.77,-38.01,-38.01,-38.01
-10.44,1.81,0.84,-42.14,-42.14,-42.14
-10.39,1.75,0.92,-43.47,-43.47,-43.47
-10,1.78,1.06,-43.4,-43.26,-42.98
-9.35,1.88,1.14,-42,-42,-41.44
-8.76,1.77,0.92,-40.39,-40.39,-40.39
-8.51,1.47,0.86,-38.15,-38.15,-37.31
-8.3,1.18,1.22,-27.72,-27.72,-27.72
-8,1.17,1,-25.55,-25.55,-25.55
-7.78,1.21,0.84,-23.45,-23.17,-23.17
-7.82,1.14,0.84,-21.91,-21.56,-21.56
-8.06,0.97,0.88,-19.11,-19.11,-18.83
-8.19,0.89,0.78,-18.06,-18.06,-18.06
-8.11,0.73,0.67,-17.64,-17.64,-17.64
-8.91,0.62,0.5,-20.09,-20.09,-20.09
-8.9,0.59,0.57,-22.05,-22.05,-22.05
-8.56,0.68,0.71,-22.4,-22.4,-22.4
-8.71,0.75,0.67,-23.03,-23.03,-23.03
-8.65,0.86,0.67,-24.99,-24.99,-24.99
-8.52,0.8,0.77,-26.67,-26.67,-26.67
-8.57,0.52,0.5,-26.74,-26.74,-26.81
-8.27,0.47,0.54,-25.97,-25.97,-25.97
-8.23,0.65,0.93,-25.69,-25.48,-25.48
-8.37,0.74,1.41,-26.04,-26.04,-26.04
-8.78,0.93,1.32,-23.17,-23.17,-22.96
-9.24,0.85,1.32,-22.19,-21.98,-21.98
-9.83,0.61,1.5,-19.88,-19.88,-19.67
-9.56,0.79,1.47,-18.13,-18.13,-17.08
-9.32,0.78,1.35,-15.19,-15.19,-14.35
-9.44,0.8,1.32,-11.48,-11.48,-10.78
-9.66,0.83,1.21,-6.86,-6.86,-6.86
-9.91,0.89,1.24,-4.76,-4.76,-4.76
-9.82,0.81,0.92,-2.17,-1.68,-1.68
-10.15,0.75,1.04,1.47,1.47,1.47
-10.65,0.82,1,4.34,4.55,5.32
-11,0.89,0.98,6.37,6.44,6.44
-10.8,0.64,0.63,7.84,7.84,7.84
-10.89,0.43,0.45,9.66,10.43,10.43
-11.18,0.61,0.49,12.32,12.32,12.81
-11.46,1.01,0.44,13.3,13.3,13.16
-11.47,1.38,0.24,11.69,11.69,11.69
-11.38,1.45,0.28,8.33,7.98,7.98
-11.17,1.48,0.32,5.81,5.81,5.6
-10.84,1.58,0.09,2.03,2.03,2.03
-10.73,1.71,0.27,-1.54,-1.54,-3.01
-10.48,1.78,0.25,-9.66,-9.66,-9.66
-10.59,1.57,0.34,-16.03,-16.03,-16.03
-10.38,1.38,0.26,-20.58,-21.21,-21.21
-10.11,1.15,0.16,-26.25,-26.74,-26.74
-9.79,1.11,0.09,-29.33,-29.33,-29.33
-10.17,1.01,0.17,-33.32,-33.32,-34.51
-10.34,0.86,0.31,-37.17,-37.17,-37.17
-10.08,0.66,0.32,-37.59,-37.59,-37.59
-9.91,0.48,0.37,-35.63,-35.63,-35.63
-10.26,0.44,0.54,-34.23,-34.23,-34.09
-10.53,0.42,0.69,-32.48,-32.48,-32.48
-10.46,0.25,0.77,-29.68,-29.12,-29.12
-10.27,0.18,0.83,-22.68,-22.68,-21.7
-10.41,0.23,0.86,-17.15,-17.15,-16.66
-10.28,0.4,1.02,-4.9,-4.9,-4.9
-10.08,0.47,1.05,-1.26,0.49,0.49
-10.28,0.53,1.1,3.22,3.78,4.41
-10.68,0.67,1.37,5.81,5.81,5.88
-10.86,0.67,1.49,6.51,6.51,6.51
-10.82,0.72,1.61,8.19,8.19,8.19
-11.06,0.8,1.71,9.59,9.73,9.73
-11.23,1.02,1.94,10.64,10.64,10.64
-11.13,1.15,1.99,10.85,10.85,10.85
-10.92,1.12,2.01,10.92,10.78,10.78
-10.64,1.02,2.05,9.31,9.31,9.31
-10.33,0.88,2.05,6.37,6.02,6.02
-10.12,0.76,2.13,3.15,2.73,2.73
-9.73,0.62,2.14,0.91,0.91,0.91
-9.54,0.49,2.08,-2.31,-2.31,-2.31
-9.54,0.28,2.02,-5.46,-5.46,-5.46
-9.54,-0.04,1.94,-7.35,-7.35,-7.35
-9.59,-0.29,1.93,-7.98,-7.98,-7.98
-9.63,-0.4,1.92,-7.91,-7.35,-7.35
-9.4,-0.52,1.83,-0.84,-0.56,-0.56
-9.49,-0.53,1.74,3.64,4.27,4.27
-9.54,-0.45,1.69,7.77,8.33,8.33
-9.55,-0.28,1.71,10.57,11.76,11.76
-9.68,-0.11,1.67,13.02,13.3,13.51
-9.89,0.16,1.6,12.04,12.04,11.9
-9.85,0.17,1.69,9.8,9.8,9.45
-9.92,0.18,1.67,7.14,7.14,7.14
-10.05,0.23,1.74,3.15,3.15,3.15
-10.05,0.26,1.83,-2.52,-2.52,-2.52
-9.96,0.33,1.87,-6.02,-6.02,-6.65
-9.87,0.29,1.93,-10.64,-10.64,-11.13
-9.73,0.23,1.94,-14.7,-14.7,-14.7
-9.59,0.11,2.01,-16.31,-16.73,-16.73
-9.53,-0.02,2.05,-17.29,-17.29,-17.29
-9.54,-0.09,2.16,-16.8,-16.8,-16.8
-9.53,-0.1,2.28,-15.33,-15.33,-15.33
-9.56,-0.1,2.37,-13.51,-12.95,-12.95
-9.78,-0.15,2.34,-10.78,-10.78,-10.5
-10.16,-0.23,2.28,-7.84,-7.84,-7.84
-10.47,-0.19,2.33,-5.74,-5.74,-5.74
-10.64,-0.06,2.32,-4.34,-4.34,-4.34
-10.73,0.04,2.28,-4.55,-4.55,-4.55
-10.66,0.16,2.33,-5.46,-5.81,-5.81
-10.72,0.22,2.28,-6.44,-6.72,-7
-11,0.28,2.29,-8.4,-8.4,-8.47
-11.01,0.43,2.24,-9.45,-9.45,-9.45
-10.78,0.59,2.14,-10.5,-10.5,-10.5
-10.43,0.79,2.05,-11.76,-11.76,-11.76
-10.17,0.86,1.98,-12.04,-12.04,-12.04
-10.11,0.83,1.93,-11.2,-11.06,-11.06
-10.31,0.82,1.88,-8.96,-8.47,-7.91
-10.75,0.77,1.94,-6.16,-6.16,-5.53
-11.21,0.97,2.01,-1.47,-1.47,-0.98
-11.58,1.03,1.99,1.96,1.96,1.96
-11.98,1.01,1.84,5.46,5.46,5.46
-12.24,0.9,1.96,7.42,7.42,7.42
-12.05,0.85,1.78,10.64,10.99,10.99
-11.88,0.89,1.68,12.04,12.11,12.11
-11.07,1.31,1.18,6.72,6.02,4.83
-11.27,1.4,1.23,1.12,0.35,0.35
-11.4,1.26,1.29,-7.28,-7.77,-7.77
-11.37,1,1.34,-10.22,-10.92,-10.92
-11.16,0.68,1.09,-11.62,-11.76,-11.76
-11.02,0.48,0.96,-11.34,-11.41,-11.06
-11.01,0.43,0.83,-10.36,-10.29,-10.29
-10.89,0.3,0.52,-8.89,-8.75,-8.75
-10.15,0.21,0.22,-5.18,-5.18,-5.18
-9.94,-0.02,0.16,-2.87,-1.68,-1.68
-9.68,-0.22,0.01,2.73,2.73,3.5
-9.86,-0.18,0.05,8.33,8.33,9.52
-9.67,-0.15,-0.07,14.14,14.14,14.14
-9.37,-0.04,-0.21,19.32,19.32,19.95
-9.45,0.08,-0.22,24.43,25.13,25.13
-9.85,-0.05,-0.4,31.15,31.85,31.85
-10.37,0.02,-0.34,37.24,37.24,38.01
-10.33,0.18,-0.56,42.49,42.98,42.98
-9.73,0.23,-0.79,45.22,45.22,45.57
-9.43,0.32,-0.63,47.18,47.53,47.81
-9.49,0.3,-0.43,49.91,49.91,50.05
-9.48,0.44,-0.36,50.89,50.89,50.96
-8.88,0.5,-0.49,50.82,50.82,50.68
-7.94,0.54,-0.44,49.7,49.42,49.42
-7.07,0.65,-0.22,49.21,49.21,49.21
-7.34,0.55,-0.01,46.83,46.83,46.48
-7.09,-0.17,-0.35,44.73,44.73,44.8
-6.39,-0.63,-0.05,47.39,47.39,47.39
-5.3,-0.56,0.48,53.06,53.06,53.06
-4.79,0.22,1.15,57.47,57.47,57.47
-4.95,0.73,1.26,56.28,55.51,55.51
-5.49,0.92,1.33,53.13,52.43,52.43
-6.06,1.22,1.48,50.61,50.61,50.61
-6.46,1.27,1.33,48.58,48.58,48.58
-6.69,1.17,1.04,44.94,44.94,44.94
-7.04,1.18,0.78,38.99,38.36,38.36
-7.33,1.45,0.76,34.16,33.39,33.39
-7.57,1.85,0.79,26.6,25.34,25.34
-7.59,2.22,0.8,12.04,12.04,10.36
-8.34,2.19,0.52,0.28,0.28,0.28
-9.08,1.82,0.4,-11.9,-11.9,-11.9
-9.72,1.66,0.35,-15.89,-16.73,-16.73
-10.31,1.76,0.59,-18.41,-19.11,-19.11
-10.59,1.88,0.46,-20.65,-20.65,-20.65
-10.35,1.84,0.56,-20.44,-20.44,-20.44
-10.28,1.63,0.72,-18.97,-18.55,-18.55
-10.17,1.32,0.88,-15.47,-15.47,-15.47
-9.93,1.2,0.81,-13.16,-13.16,-13.16
-9.99,1.18,0.98,-12.6,-12.6,-12.6
-9.79,1.17,1.2,-12.74,-12.74,-12.74
-9.26,1.13,1.21,-12.46,-12.18,-12.18
-9.12,1,1.09,-12.04,-12.04,-12.04
-8.7,1.07,1.14,-12.74,-12.74,-12.74
-8.14,1.17,1.32,-13.72,-14,-14
-8.23,1.04,1.67,-14.49,-14.49,-14.49
-7.86,1.02,1.8,-13.3,-13.09,-13.09
-7.45,1.02,1.68,-12.18,-12.18,-12.04
-7.37,1.06,1.89,-11.76,-11.76,-11.55
-7.22,1.16,2.13,-11.34,-11.34,-11.34
-7.55,0.97,2.08,-11.34,-11.34,-11.34
-7.55,0.89,2.02,-11.9,-11.9,-12.11
-7.93,0.79,2.27,-12.67,-12.74,-12.74
-7.77,0.66,1.99,-13.23,-13.23,-13.3
-7.98,0.4,1.82,-14.56,-14.56,-14.84
-8.69,0,1.96,-16.73,-17.57,-17.71
-8.63,-0.38,1.75,-19.18,-19.18,-19.39
-9.29,-0.95,1.53,-19.39,-19.39,-19.46
-10.04,-1.49,1.2,-19.6,-19.6,-19.74
-10.43,-1.87,0.81,-23.17,-23.24,-23.24
-10.56,-2.44,0.42,-23.38,-23.24,-23.24
-10.52,-2.68,-0.39,-22.82,-22.82,-22.82
-10.61,-2.48,-0.61,-23.1,-23.1,-23.66
-10.83,-2.2,-0.39,-25.55,-25.55,-26.18
-10.75,-1.94,-0.02,-30.45,-30.45,-30.87
-10.68,-1.79,0.19,-33.6,-34.86,-35.35
-10.87,-1.62,0.46,-37.66,-37.66,-38.78
-10.44,-1.41,0.7,-41.79,-41.79,-41.86
-10.44,-1.29,0.74,-42.42,-42.42,-42.42
-10.23,-0.89,0.65,-42.49,-42.49,-42.28
-10.22,-0.4,0.67,-41.44,-41.44,-41.23
-10.61,-0.07,0.93,-39.27,-39.27,-39.27
-10.63,0.13,0.67,-36.47,-36.47,-36.47
-10.6,0.38,0.54,-34.23,-33.88,-33.88
-10.79,0.66,0.72,-33.81,-33.81,-33.95
-11.05,0.6,0.68,-35.7,-35.7,-35.7
-10.94,0.43,0.57,-36.33,-36.33,-36.33
-10.67,0.38,0.67,-36.19,-36.12,-36.12
-10.46,0.22,0.87,-36.47,-36.47,-36.54
-10.33,-0.14,1.05,-37.45,-37.8,-38.01
-10.34,-0.4,1.19,-38.85,-38.85,-39.27
-10,-0.52,1.33,-38.01,-38.01,-38.01
-9.82,-0.65,1.29,-33.39,-33.39,-33.39
-9.84,-0.65,1.25,-27.65,-27.65,-27.65
-9.91,-0.58,1.3,-22.75,-22.75,-22.75
-10.2,-0.36,1.32,-15.89,-15.19,-15.19
-10.56,-0.33,1.33,-10.5,-9.94,-9.94
-10.6,-0.49,1.26,-5.74,-5.32,-5.32
-10.7,-0.56,1.27,-1.61,-1.05,-1.05
-10.53,-0.56,1.18,2.31,2.31,2.66
-10.42,-0.5,1.13,4.41,4.41,4.41
-10.45,-0.7,1.07,2.03,2.03,2.03
-10.82,-1.1,1.13,-0.98,-0.98,-0.98
-11.45,-1.47,1.23,-2.59,-2.59,-2.87
-12.44,-2.01,1.44,-4.2,-4.2,-4.2
-12.48,-2.14,1.74,-4.27,-3.99,-3.99
-12.16,-1.84,2.07,-2.1,-2.1,-1.75
-11.76,-1.53,2.45,2.17,2.17,2.17
-11.34,-1.22,2.64,5.18,6.02,6.02
-10.71,-0.98,2.7,8.4,8.4,8.4
-10.13,-0.56,2.76,10.29,10.29,10.29
-9.91,-0.31,2.76,8.4,8.4,8.4
-9.83,-0.11,2.78,4.48,4.48,3.78
-9.9,-0.21,2.68,-1.19,-1.19,-1.19
-10,-0.5,2.55,-4.06,-4.97,-4.97
-10.19,-0.75,2.31,-7.07,-7.28,-7.28
-10.47,-0.96,2.21,-9.31,-9.31,-9.59
-10.85,-1.11,2.15,-10.43,-10.64,-10.64
-11.03,-1.35,2,-9.87,-9.87,-9.87
-11.1,-1.46,1.87,-8.4,-8.4,-8.4
-11.22,-1.45,1.85,-7.7,-7.49,-7.49
-10.31,-1.25,1.87,-5.67,-5.67,-5.67
-10.1,-1.29,1.85,-4.41,-4.06,-4.06
-10.23,-1.36,1.77,-2.87,-2.87,-2.59
-10.58,-1.34,2.02,-1.19,-1.19,-1.19
-10.54,-1.34,1.97,1.4,1.4,1.96
-10.67,-1.44,2.02,3.5,3.5,3.5
-10.8,-1.49,2.01,5.39,5.39,5.39
-11.15,-1.6,2.16,6.72,6.72,6.72
-11.3,-1.62,2.16,7.91,8.4,8.4
-11.25,-1.62,2.05,10.71,10.71,10.85
-11.17,-1.58,1.96,13.09,13.09,13.65
-10.65,-1.13,1.74,17.5,17.5,17.5
-10.35,-0.99,1.87,18.13,18.13,18.27
-9.95,-0.78,1.89,18.48,18.48,18.48
-9.52,-0.78,1.65,17.92,17.92,17.92
-9.71,-1.12,1.22,19.95,19.95,19.95
-10,-1.19,0.95,21.14,21.21,21.21
-10.2,-1.33,0.59,21.49,21.7,21.7
-10.43,-1.31,0.65,22.33,22.33,22.96
-10.86,-0.99,0.91,23.52,23.52,23.31
-10.29,-0.53,0.56,21.35,20.86,20.86
-9.71,-0.58,0.18,17.85,17.29,17.08
-8.94,-0.74,-0.29,15.82,15.82,15.68
-8.37,-0.74,-0.51,15.75,15.75,15.75
-8.41,-0.6,-0.44,15.75,15.75,15.54
-8.59,-0.52,-0.52,14.91,14.91,15.05
-8.68,-0.36,-0.43,15.4,15.4,15.4
-9.01,-0.38,-0.4,15.75,15.75,15.96
-9.26,-0.5,-0.41,17.36,17.36,17.71
-9.56,-0.9,-0.49,20.93,20.93,21.7
-9.63,-0.98,-0.74,26.88,26.88,27.58
-10.39,-0.9,-0.41,31.36,31.36,31.85
-10.65,-0.64,-0.27,33.74,33.74,33.74
-10.16,-0.27,-0.44,32.55,32.55,32.55
-9.43,-0.06,-0.56,28.63,28.63,28.63
-9.06,0,-0.41,24.15,24.15,24.15
-9.14,-0.27,-0.28,20.23,20.23,20.23
-8.78,-0.3,-0.34,17.64,17.64,17.64
-8.6,-0.28,-0.13,17.01,17.01,17.01
-8.95,-0.01,0.77,16.94,16.94,16.94
-8.92,-0.23,0.54,19.74,20.09,20.09
-9.14,-1.17,0.01,31.85,31.85,34.51
-9.18,-1.26,0.12,38.99,38.99,41.86
-8.71,-1.11,0.16,49,49,49
-8.38,-0.86,0.14,57.4,57.4,59.29
-8.48,-0.76,0.01,66.43,66.43,66.43
-8.68,-0.34,0.1,72.38,72.38,72.38
-8.25,0.31,0.31,73.22,73.22,73.22
-8.54,0.86,0.7,64.4,64.4,64.4
-8.25,1.37,1,55.23,52.01,52.01
-7.69,1.71,1.16,41.51,41.51,37.73
-6.95,1.98,1.26,23.24,21.07,21.07
-6.1,2.01,1.4,4.83,2.66,2.66
-5.43,1.41,1.18,-39.13,-39.13,-39.13
-6.03,0.97,1.13,-45.92,-46.83,-46.83
-6.37,0.6,0.8,-47.53,-47.53,-47.39
-6.86,0.54,0.5,-46.06,-45.85,-45.85
-7.51,0.37,0.57,-44.45,-44.45,-44.45
-7.54,0.27,0.39,-41.37,-41.37,-41.37
-7.65,0.22,0.28,-36.89,-36.89,-36.54
-7.37,0.63,0.19,-32.41,-32.34,-32.34
-7.36,0.66,-0.15,-31.78,-32.06,-32.06
-8.08,0.56,-0.19,-33.39,-33.39,-34.02
-8.26,0.51,-0.11,-36.19,-36.19,-36.19
-8.77,0.38,-0.81,-38.29,-38.85,-38.85
-9.94,0.06,-0.69,-42.35,-43.05,-43.05
-9.79,-0.35,-1.03,-46.76,-47.18,-47.18
-9.83,-0.47,-1.48,-48.51,-48.51,-48.51
-10.83,-0.63,-0.99,-49.21,-49.21,-49.14
-11.14,-0.83,-1.06,-49.35,-49.35,-49.35
-10.63,-1.1,-1.33,-47.95,-47.11,-47.11
-10.9,-1.49,-0.72,-36.89,-36.33,-36.33
-10.37,-1.51,-0.98,-31.29,-31.29,-30.73
-9.86,-1.66,-0.99,-27.23,-27.23,-26.67
-10.47,-1.67,-0.52,-20.44,-20.44,-20.44
-10.83,-1.64,-0.65,-17.01,-16.45,-16.45
-10.88,-1.57,-0.56,-11.9,-11.9,-11.41
-10.71,-1.73,-0.55,-9.87,-9.87,-9.59
-10.94,-1.83,-0.41,-8.26,-8.26,-8.05
-11.4,-1.79,-0.27,-6.86,-6.86,-6.86
-11.73,-1.65,0,-7.84,-7.84,-7.84
