aX,aY,aZ,gX,gY,gZ
-9.66,-3.37,3.13,-81.34,-71.12,-71.12
-9.27,-4.32,2.99,-53.48,-49.77,-42.07
-9.56,-4.66,3.46,-23.17,-19.6,-19.6
-9.78,-4.39,3.7,5.53,5.53,5.53
-9.74,-3.96,3.81,27.93,30.17,30.17
-9.57,-3.39,3.93,42.56,44.24,44.24
-9.51,-2.75,3.99,54.88,54.88,56.14
-9.6,-1.56,3.96,62.3,62.3,62.58
-9.4,-1.03,3.95,62.23,62.23,62.02
-8.77,-0.39,3.81,59.64,59.64,59.29
-8.49,0.36,3.84,57.33,56.21,55.58
-8.68,1.31,3.86,50.96,50.96,46.97
-9.21,1.65,4,35.07,35.07,33.25
-8.74,1.29,3.65,23.8,23.8,23.8
-8.7,1.25,3.3,14.35,13.23,13.23
-8.38,1.16,2.9,5.74,4.48,4.48
-8,0.76,2.35,-2.66,-3.57,-3.57
-8.16,0.15,2.18,-7.35,-7.77,-7.77
-8.52,-0.52,2.01,-10.85,-10.85,-11.34
-9,-0.87,1.92,-13.16,-13.58,-13.58
-9.13,-1.18,1.75,-17.78,-17.78,-18.2
-9.3,-1.37,1.71,-20.37,-20.37,-20.65
-9.43,-1.36,1.72,-23.38,-23.38,-23.59
-9.46,-1.11,1.71,-25.34,-25.34,-25.55
-9.62,-0.95,1.76,-27.3,-27.3,-27.3
-9.71,-0.94,1.84,-27.93,-27.93,-27.93
-9.59,-1.24,1.87,-26.25,-26.25,-26.25
-9.59,-1.53,1.94,-23.17,-21.98,-21.98
-9.98,-1.39,2.19,-17.5,-17.5,-16.17
-10.92,-0.43,2.55,-11.06,-10.36,-10.36
-11.72,0.75,2.93,-6.3,-6.3,-4.76
-12.84,2.03,3.27,-3.08,-3.08,-3.01
-12.61,2.09,2.86,-1.96,-1.96,-1.47
-11.81,1.96,2.54,1.61,1.61,2.17
-11.35,1.92,2.2,8.05,8.05,8.05
-11.61,2.06,2.22,11.41,11.41,11.41
-11.67,1.89,1.83,14.35,15.54,15.54
-12.07,2.13,1.32,19.11,19.11,20.09
-12.86,2.94,1.29,21.35,21.35,21.35
-12.96,2.5,1.31,18.13,17.08,17.08
-13.14,1.84,1.56,14.98,14.98,14.7
-12.31,0.7,1.2,16.17,16.59,16.59
-11.79,-0.01,0.57,22.05,22.68,22.68
-11.55,-0.45,0.47,24.99,24.99,24.99
-11.59,-1.17,0.72,26.74,27.02,27.02
-10.97,-1.79,0.89,31.85,31.85,32.76
-9.9,-1.67,0.62,42.42,42.42,43.26
-8.61,-1.33,0.36,46.41,46.41,46.41
-8.47,-0.55,0.56,43.54,42.56,42.56
-8.41,0.27,0.67,35.98,30.73,30.73
-8.65,0.67,0.25,20.16,13.37,13.37
-9.25,1.3,-0.37,-3.15,-3.15,-3.15
-8.96,1.6,-0.83,-30.24,-30.24,-30.24
-8.63,1.05,-1.76,-50.89,-50.89,-50.89
-8.8,0.11,-1.82,-74.55,-74.55,-74.55
-8.47,-1.16,-1.88,-80.85,-81.69,-81.69
-7.94,-2.25,-2.51,-80.99,-80.99,-80.99
-7.91,-3.05,-2.25,-70.56,-70.56,-70.56
-7.93,-3.4,-1.36,-59.36,-59.36,-57.19
-7.8,-3.58,-0.81,-42,-42,-39.83
-7.6,-4.05,-0.85,-22.68,-22.68,-22.68
-7.64,-3.97,-0.25,-8.26,-8.26,-8.26
-7.45,-3.59,-0.06,1.4,1.4,3.92
-7.04,-3.32,-0.32,9.73,9.73,11.27
-7.27,-2.65,-0.09,15.75,15.75,16.94
-7.54,-1.79,0.34,20.58,20.58,21.35
-7.51,-1.02,0.33,20.79,20.79,20.09
-7.92,-0.73,0.4,10.29,8.75,8.75
-7.97,-0.85,0.55,3.5,3.5,2.59
-8.17,-0.86,0.28,-4.13,-4.97,-4.97
-8.4,-1.37,0.09,-10.78,-10.78,-10.78
-8.5,-1.84,-0.02,-13.72,-13.72,-13.72
-8.77,-2.09,0.16,-14.07,-14.14,-14.14
-8.74,-2.51,-0.15,-13.86,-13.86,-13.51
-8.43,-2.93,-0.45,-10.85,-10.85,-10.85
-8.03,-3.42,-0.35,-2.31,-2.31,-2.31
-6.97,-3.89,-0.54,5.46,5.46,5.46
-6.7,-3.79,-0.43,11.97,11.97,11.97
-7.5,-2.79,-0.32,22.47,23.8,23.8
-7.43,-2.34,-0.1,31.92,31.92,31.92
-6.71,-2.22,-0.59,35.63,35.63,35.63
-7.19,-1.86,-0.74,37.73,37.73,37.73
-7.62,-1.57,-0.38,41.93,42.14,42.14
-7.74,-0.81,-0.14,42.42,42,41.72
-8.09,0.33,0.06,37.66,37.66,37.66
-7.9,0.1,0.1,29.05,28.14,28.14
-7.97,-0.42,0.1,23.94,21.7,21.7
-8.91,0.34,0.79,17.22,17.22,17.22
-9.1,0.95,1.14,10.5,10.5,9.38
-9.36,0.74,1.68,-1.33,-1.33,-1.33
-10.29,0.41,2.03,-6.16,-6.16,-6.16
-11.37,0.8,2.68,-6.72,-6.72,-6.72
-11.48,1.57,2.68,-8.19,-8.19,-8.19
-11.95,2.65,2.83,-13.79,-13.79,-13.79
-13.06,3.17,3.2,-17.78,-18.62,-18.62
-13.81,3.14,3.38,-19.39,-19.39,-19.18
-14.02,3.47,3.26,-19.95,-19.95,-19.95
-13.84,3.46,3.19,-22.54,-23.38,-23.38
-13.81,3,3.25,-25.48,-25.48,-25.69
-14.04,2.37,3.41,-24.92,-24.92,-24.92
-13.99,1.85,3.32,-21.84,-21.84,-21.84
-13.21,1.2,2.84,-18.62,-18.62,-18.62
-12.79,0.26,2.88,-14.84,-13.16,-13.16
-12.5,-0.58,2.68,-7.21,-7.21,-6.37
-12.35,-0.77,2.5,-0.56,-0.56,0
-12.46,-0.45,2.53,1.61,1.61,1.75
-12.57,0.15,2.72,0.63,0.28,0.28
-12.72,1.03,2.94,-5.04,-5.04,-5.04
-12.29,1.8,2.75,-13.09,-13.09,-14.14
-11.57,2.47,2.08,-22.4,-22.4,-22.4
-10.79,2.88,1.62,-25.97,-26.32,-26.32
-10.33,2.77,1.51,-26.88,-26.88,-26.88
-9.88,2.4,1.35,-24.08,-24.08,-24.08
-9.93,2.22,1.45,-20.51,-20.51,-20.51
-11.3,3.31,1.79,-17.71,-18.34,-18.34
-10.96,2.6,1.61,-19.11,-18.27,-18.27
-10.47,2.09,1.63,-15.61,-14.77,-12.81
-9.14,2.36,1.32,8.82,9.52,9.52
-9.05,2.64,1.5,15.26,15.26,15.26
-9.04,3.53,1.6,23.1,23.8,23.8
-9.79,5.84,1.64,16.24,14.91,14.91
-9.61,6.25,2.08,-3.64,-5.67,-6.65
-8.88,6.07,2.15,-11.69,-11.69,-11.69
-7.87,5.28,1.98,-15.75,-16.31,-16.38
-7.26,4.93,1.95,-16.1,-16.1,-15.05
-6.72,4.76,1.97,-11.97,-11.97,-9.52
-5.94,4.08,1.86,-3.64,-3.64,-3.64
-6.03,3.84,1.7,3.92,3.92,3.92
-5.97,3.46,1.21,9.03,9.03,10.92
-5.56,2.92,0.67,15.68,16.52,16.52
-5.48,3.46,0.21,22.12,22.19,22.19
-5.93,3.76,0.24,21,19.18,19.18
-6,3.62,-0.16,14,13.09,13.09
-5.45,3.3,-0.53,3.57,3.57,2.73
-5.46,4,-0.58,-4.62,-4.62,-4.62
-4.89,4.16,-0.94,-14.91,-15.89,-15.89
-4.97,4.15,-0.85,-19.81,-20.93,-20.93
-4.83,4,-1,-19.74,-19.74,-19.74
-4.92,4.52,-0.86,-11.48,-10.15,-10.15
-5.36,4.74,-0.49,-1.68,-0.14,-0.14
-6.33,5.33,-0.24,10.08,11.83,11.83
-7.1,6.28,-0.68,27.51,28.98,28.98
-7.47,6.42,-0.85,36.05,36.68,36.68
-8.24,6.79,-0.63,38.92,39.06,39.06
-8.47,7.31,-0.96,37.03,36.54,36.54
-7.96,7.47,-1.25,31.08,29.68,29.68
-7.71,7.74,-1.43,20.09,18.06,18.06
-7.85,7.58,-1.66,-0.35,-2.31,-2.31
-7.39,7.1,-1.77,-12.81,-14,-14
-4.27,3.72,-1.64,-28.21,-28.21,-28.14
-3.98,4.42,-1.48,-25.62,-25.62,-25.62
-4.2,4.08,-1.04,-13.79,-13.79,-13.79
-5.15,4.35,-0.45,-2.45,-2.45,-2.45
-6.04,4.47,-0.45,8.96,8.96,8.96
-6.74,4.55,-0.24,20.3,20.3,20.3
-8.04,5.11,0.65,22.54,22.54,22.75
-8.47,5.49,0.33,24.08,24.08,24.08
-7.69,4.98,0.14,24.43,24.43,24.43
-7.59,4.45,0.97,24.78,24.78,24.78
-7.36,4.19,1.12,27.02,28.07,28.07
-6.45,3.91,0.71,32.06,33.39,33.39
-6.27,4.39,0.83,37.1,37.1,37.1
-6.72,5.2,0.39,39.41,39.41,39.41
-7.26,5.86,-0.04,38.22,38.22,38.22
-7.75,6.32,0.2,31.43,30.24,30.24
-8.76,7.29,0.31,22.61,16.24,16.24
-9.33,7.48,0.3,2.8,-5.88,-5.88
-9.18,6.5,0.26,-18.62,-20.86,-24.57
-8.97,5.43,0.64,-31.5,-32.41,-34.02
-6.77,2.84,1.28,-36.05,-36.05,-35.42
-6.03,2.24,1.36,-27.93,-27.93,-26.53
-6.55,2.42,1.72,-16.1,-16.1,-16.1
-7.25,3.33,1.42,-3.15,-3.15,-3.15
-7.81,3.82,0.97,2.17,2.17,2.17
-8.79,4.53,0.99,4.13,4.34,4.34
-9.49,5.06,0.97,2.73,2.73,2.17
-10.54,5.58,1.29,-7.56,-7.56,-7.56
-11.23,5.84,1.13,-15.68,-18.2,-19.53
-11.15,5.11,0.96,-25.55,-26.46,-26.46
-10.44,4.57,1.04,-32.27,-32.27,-32.48
-10.18,4.65,1.6,-33.67,-33.67,-33.67
-10.4,4.72,2.43,-31.08,-31.08,-31.08
-10.78,4.51,2.88,-27.23,-25.83,-25.83
-11.01,4.01,3.21,-20.86,-20.09,-20.09
-10.88,3.47,3.05,-14.49,-14.49,-13.86
-10.63,3.05,2.84,-10.29,-10.29,-9.59
-10.83,3.06,2.82,-8.26,-8.12,-8.12
-11.13,3.3,2.55,-8.54,-8.54,-8.54
-11.32,3.51,2.22,-9.87,-10.43,-10.43
-11.33,3.92,1.78,-11.97,-12.18,-12.18
-11.42,4.24,1.53,-15.75,-15.75,-16.24
-11.25,4.28,1.38,-20.51,-22.47,-23.59
-11.18,4.57,1.02,-29.33,-31.85,-33.25
-10.47,4.08,0.55,-39.62,-39.62,-42.84
-9.82,3.57,0.19,-47.11,-47.11,-47.74
-9.65,3.2,0.15,-49.14,-49.14,-48.79
-9.29,2.68,0.22,-45.15,-45.15,-45.15
-8.87,2.04,0.19,-40.32,-38.22,-38.22
-8.64,1.68,0.13,-30.94,-28.21,-28.21
-8.84,1.7,0.38,-20.23,-17.64,-17.64
-9.17,1.55,0.68,-10.5,-10.5,-8.12
-9.53,1.67,0.79,-1.47,-1.47,0.56
-9.61,1.57,0.88,8.89,8.89,8.89
-9.6,1.84,0.91,15.96,16.59,16.59
-9.93,2.33,1.01,19.11,19.11,19.11
-10.04,2.25,1.08,20.02,20.02,20.02
-10.14,2.33,1.11,19.46,18.97,18.97
-10.29,2.53,1.19,16.24,16.24,16.24
-10.38,2.71,1.36,9.17,8.26,8.26
-10.08,2.69,1.44,2.24,1.4,1.4
-9.48,2.38,1.39,-2.17,-2.87,-2.87
-9.18,2.45,1.39,-8.12,-8.61,-8.61
-9.16,2.46,1.53,-12.74,-12.74,-13.16
-8.9,2.28,1.56,-17.15,-17.15,-17.15
-8.59,2.14,1.6,-22.54,-22.54,-22.54
-8.42,2.17,1.55,-26.6,-26.6,-27.37
-8.6,1.71,1.23,-39.34,-39.34,-39.41
-9.16,1.82,1.26,-39.41,-39.41,-39.41
-9.82,1.9,1.53,-42.28,-42.28,-42.28
-10.46,1.74,1.85,-44.59,-44.94,-44.94
-10.22,-0.06,2.49,-44.38,-43.75,-43.75
-9.64,0.09,2.59,-38.29,-38.29,-37.87
-9.08,0.49,2.52,-36.33,-36.26,-36.19
-9.62,1.29,2.37,-37.8,-38.64,-38.64
-9.45,0.85,2.13,-42.07,-42.77,-42.98
-9.38,0.89,1.87,-43.33,-42.98,-42.77
-9.06,0.86,1.53,-41.37,-41.02,-41.02
-8.92,0.74,1.11,-36.96,-36.96,-36.75
-8.96,0.54,0.84,-33.18,-31.5,-30.45
-9.18,0.3,0.54,-25.27,-23.1,-21.7
-9.6,0.51,0.34,-15.33,-15.33,-11.41
-10.15,0.74,0.31,-5.32,-5.32,-4.06
-10.5,0.84,0.3,2.8,3.85,3.85
-10.58,0.63,0.1,13.09,13.09,14.07
-10.27,0.66,-0.07,19.11,20.93,21.7
-9.91,0.7,-0.22,27.3,27.3,27.65
-9.74,0.89,-0.3,30.17,30.94,30.94
-9.84,1.21,-0.25,33.67,34.02,34.02
-9.87,1.6,-0.14,34.86,34.86,34.86
-9.98,2.06,0.11,31.43,30.94,30.94
-9.88,2.29,0.17,27.3,25.06,25.06
-9.6,2.12,0.16,21.42,20.79,20.79
-9.33,2,0.17,17.5,17.29,17.29
-8.98,2.01,0.02,14.42,14.42,14.14
-9.14,1.89,0.17,12.18,11.55,11.34
-9.36,1.69,0.14,10.08,10.08,9.87
-9.47,1.43,0.04,8.54,8.54,8.54
-9.26,1.28,-0.08,7.91,7.91,7.49
-9.1,1.45,-0.17,6.44,6.44,6.44
-9.02,1.97,-0.24,4.76,4.76,4.76
-9.29,2.49,-0.16,3.5,3.5,3.5
-9.61,2.79,-0.13,1.12,1.12,1.12
-9.7,2.91,-0.34,-0.35,-0.35,-0.35
-9.57,2.67,-0.3,-0.21,-0.21,0
-10.01,2.71,-0.28,1.33,1.33,1.33
-10.38,3.17,-0.44,5.6,5.6,5.6
-10.34,3.19,-0.38,7.91,7.91,7.91
-9.71,3.01,-0.55,8.96,9.38,9.38
-9.49,2.76,-0.78,10.57,11.13,11.13
-9.62,2.81,-0.82,13.37,13.37,13.37
-9.62,2.6,-0.65,17.57,17.57,17.57
-9.48,2.25,-0.72,20.37,21.28,21.28
-9.39,2.1,-1,23.87,23.87,24.64
-9.65,2.09,-0.78,27.16,27.51,27.51
-9.64,2.11,-0.65,28.98,28.98,28.98
-9.58,2.18,-0.67,28.56,28,27.72
-9.62,2.49,-0.65,25.76,25.76,24.5
-9.49,2.67,-0.53,21.28,21.28,21.28
-9.53,2.78,-0.42,17.43,16.8,16.8
-9.66,2.81,-0.3,12.25,12.25,12.25
-9.32,2.82,-0.29,7.14,6.37,5.04
-8.81,2.91,-0.57,2.87,2.87,2.94
-8.91,2.8,-0.55,3.5,3.5,3.57
-9.04,2.94,-0.41,5.32,5.32,5.32
-9.17,2.38,-0.61,8.82,8.82,8.82
-8.85,2.01,-0.61,12.39,12.39,12.39
-9.11,2.44,-0.75,14.91,15.26,15.26
-9.39,3.63,-0.84,10.15,10.15,10.15
-9.46,3.87,-0.89,0.84,0.84,0.84
-9.35,3.66,-1.04,-7.07,-7.07,-7.91
-8.97,3.24,-1.33,-11.76,-11.76,-11.76
-8.87,3.19,-1.5,-12.53,-12.53,-12.53
-8.71,2.83,-1.57,-13.58,-13.58,-13.58
-8.81,2.77,-1.71,-14.07,-14.07,-14.07
-9.02,2.71,-1.86,-13.44,-13.44,-13.44
-9.6,2.76,-1.84,-12.81,-12.67,-12.67
-9.9,2.74,-1.89,-11.69,-11.69,-11.69
-10.04,2.81,-1.78,-10.36,-10.36,-10.15
-10.21,2.83,-1.9,-9.66,-9.66,-9.66
-10.91,3.14,-1.57,-10.22,-10.22,-10.22
-10.89,2.99,-1.56,-12.11,-12.32,-12.32
-9.57,1.88,-1.66,-6.51,-6.51,-5.88
-7.98,0.39,-1.23,28.49,29.47,29.47
-8.5,0.48,-1.03,36.12,36.12,36.12
-9.39,1.3,-0.84,41.16,41.16,41.16
-9.57,1.63,-0.87,38.15,38.15,38.15
-9.83,2.08,-0.83,31.71,30.73,30.73
-10.01,2.06,-0.88,21.28,21.28,21.28
-10.36,2.09,-0.88,12.18,12.18,11.13
-10.56,2.11,-1.08,1.96,1.96,1.96
-10.49,2.09,-1.33,-6.16,-6.16,-6.16
-10.25,2.12,-1.53,-11.97,-13.72,-13.72
-10.11,2.18,-1.82,-18.34,-18.34,-19.53
-10.15,2.14,-1.93,-23.59,-23.59,-23.59
-9.6,1.58,-2.11,-27.3,-27.3,-27.3
-9.26,1.12,-2.27,-25.69,-25.34,-25.34
-9.07,0.94,-2.33,-20.79,-20.79,-20.79
-8.84,0.85,-2.41,-14.84,-14.84,-14.14
-8.98,1.01,-2.31,-7.63,-7.63,-7.63
-9.15,1.06,-2.21,-1.33,-1.33,-1.33
-9.25,1.1,-2.09,2.87,2.87,2.87
-9.44,1.23,-1.97,7.63,8.12,8.12
-9.67,1.5,-1.9,10.71,11.13,11.13
-9.78,1.76,-1.79,11.9,11.9,11.9
-10,2.08,-1.71,11.34,11.34,11.34
-10.18,2.44,-1.71,10.36,10.36,10.36
-10.22,2.6,-1.81,9.38,9.38,9.38
-10.17,2.65,-1.9,6.16,5.74,5.74
-10.14,2.5,-1.94,1.75,1.19,1.19
-10.15,2.29,-1.9,-2.73,-3.36,-3.36
-10.02,2.11,-1.79,-8.12,-8.82,-8.82
-9.78,1.99,-1.66,-14.21,-14.21,-14.7
-9.4,1.86,-1.52,-17.57,-17.57,-17.85
-9.09,1.81,-1.32,-19.53,-19.67,-19.67
-8.93,1.74,-0.98,-19.25,-19.25,-19.25
-8.83,1.57,-0.67,-16.24,-16.24,-16.24
-8.63,1.38,-0.53,-13.86,-13.09,-13.09
-8.32,1.17,-0.37,-9.94,-9.94,-8.68
-8.14,0.96,-0.38,-2.24,-2.24,-2.24
-8.17,0.86,-0.41,7.35,7.35,7.35
-8.41,0.89,-0.58,35.28,18.83,18.83
-8.37,0.78,-0.92,28.21,29.54,29.54
-8.61,0.69,-1.13,36.75,37.73,37.73
-9.36,0.94,-1.2,41.93,44.1,44.1
-10.05,1.23,-1.29,46.83,47.32,48.02
-10.75,1.53,-1.52,48.93,49.14,49.07
-12.59,1.88,-1.28,39.69,39.69,38.43
-12.8,1.83,-0.98,25.83,25.83,25.83
-12.43,1.71,-0.74,15.05,15.05,15.05
-11.73,1.56,-0.48,3.43,3.43,0.7
-10.84,1.52,-0.29,-6.58,-6.58,-8.54
-9.93,1.59,-0.17,-14.42,-14.42,-14.42
-9.26,1.72,-0.05,-20.37,-20.37,-20.37
-8.7,1.51,0.17,-25.06,-25.06,-25.06
-8.37,1.23,0.38,-27.09,-27.09,-27.09
-8.27,1.1,0.44,-26.04,-25.34,-25.34
-8.34,1.21,0.48,-21.7,-21.7,-20.09
-8.43,1.28,0.56,-14.28,-14.28,-13.51
-8.48,1.11,0.64,-7.21,-5.46,-5.46
-8.76,0.83,0.7,1.12,1.12,2.03
-9.25,0.71,0.78,11.69,11.69,11.69
-9.84,0.85,0.8,18.13,20.37,20.37
-10.39,1.15,0.79,26.6,26.6,28.42
-10.93,1.72,0.56,33.67,34.16,34.16
-11.17,2.27,0.4,36.96,36.96,36.96
-11.43,2.82,0.4,36.54,35.91,35.91
-11.48,2.95,0.34,32.41,31.85,31.85
-11.31,2.81,0.27,25.9,25.9,25.34
-9.58,2.31,-0.22,9.8,8.82,8.33
-9.05,2.45,-0.23,5.04,5.04,4.83
-9.19,2.01,0.03,0.84,0.84,0.84
-8.76,0.68,0.07,-8.75,-8.75,-8.75
-8.51,0.19,0.1,-10.92,-10.92,-10.92
-8.18,-0.25,0.04,-12.04,-12.04,-12.04
-7.93,-0.67,0.11,-11.76,-11.76,-11.76
-7.94,-0.53,0.17,-8.47,-8.47,-8.47
-8.19,-0.2,0.28,-5.81,-5.81,-5.32
-8.74,0.23,0.42,-2.87,-2.87,-2.87
-10.63,2.19,1.28,1.54,1.82,1.82
-10.62,2.55,1.33,2.1,2.1,2.1
-10.53,2.46,1.23,2.59,2.8,2.8
-10.59,2.52,1.16,6.09,6.09,6.58
-10.51,2.78,0.89,9.73,10.78,11.48
-10.1,3,0.38,15.68,15.68,15.68
-10.1,2.96,0.13,20.3,20.3,20.3
-10.21,2.84,-0.06,23.73,24.01,24.01
-10.55,2.79,-0.14,24.99,25.48,25.48
-10.79,3.16,-0.12,25.76,25.69,25.48
-10.86,3.71,-0.21,23.66,23.17,23.17
-10.94,3.87,-0.27,14.63,13.37,13.37
-11.15,3.73,-0.16,3.99,3.99,2.52
-11.17,3.18,-0.13,-5.81,-7.07,-7.07
-10.39,2.29,-0.36,-16.59,-16.59,-17.22
-9.27,0.12,-0.47,-20.3,-20.3,-20.3
-7.9,0.08,-0.61,-20.09,-20.09,-20.09
-6.93,-1.03,-0.73,-16.52,-16.52,-15.96
-6.71,-1.48,-0.57,-9.1,-9.1,-9.1
-7.11,-1.35,-0.26,-3.71,-3.71,-3.71
-7.66,-0.55,0.02,-0.77,-0.77,-0.77
-8.37,0.6,0.28,-0.49,-0.56,-0.56
-8.64,1.31,0.41,-1.89,-1.89,-2.03
-9.06,1.85,0.51,-2.52,-2.52,-2.66
-9.51,2.35,0.78,-2.38,-2.38,-2.38
-9.87,2.8,0.89,-2.52,-2.59,-2.59
-9.92,2.85,0.88,-2.17,-2.17,-1.82
-10.01,2.84,0.94,1.26,1.26,1.26
-9.92,2.81,0.87,6.02,6.02,6.02
-10.05,2.81,0.75,10.29,10.29,11.06
-10.27,3.01,0.44,17.64,17.64,17.64
-10.53,3.41,0.41,21.91,21.91,21.91
-10.75,3.33,0.24,24.01,24.01,24.01
-11.03,3.41,0.34,22.68,22.68,22.68
-10.97,3.27,0.17,18.9,18.9,18.9
-10.5,2.96,0.04,14.14,14.14,14.14
-9.71,2.15,-0.18,8.4,7.98,7.98
-8.96,1.69,-0.31,5.81,5.81,5.81
-8.42,1.22,-0.37,4.97,4.97,4.97
-7.9,1.16,-0.32,5.18,5.25,5.25
-7.59,1.25,-0.08,4.97,4.97,5.04
-7.48,1.19,0,4.83,5.04,5.04
-7.73,1.35,0.41,7.63,7.63,8.05
-8.25,1.67,0.55,10.57,11.62,12.18
-8.76,2.26,0.71,14.28,14.28,14.77
-9.89,3.22,0.52,6.93,6.93,6.58
-10.24,3.4,0.51,4.97,4.69,4.27
-10.42,3.75,0.3,2.8,2.8,1.54
-10.33,3.96,0.08,-1.05,-1.05,-1.54
-9.7,3.47,-0.33,-9.59,-9.59,-9.59
-9.41,2.85,-0.42,-11.06,-11.06,-11.06
-9.15,2.35,-0.49,-10.71,-10.57,-10.57
-8.82,1.91,-0.55,-9.8,-9.17,-9.17
-8.47,1.66,-0.48,-8.4,-8.26,-7.98
-8.08,1.69,-0.48,-7.56,-7.56,-7.56
-8.13,1.68,-0.53,-8.75,-8.75,-9.1
-8.66,1.76,-0.25,-10.29,-10.64,-10.85
-9.1,1.88,-0.16,-11.55,-11.55,-11.55
-10.02,2.63,-0.13,-10.57,-10.43,-10.43
-10.51,2.96,-0.12,-10.15,-10.15,-10.15
-10.76,2.92,-0.27,-10.29,-10.29,-10.43
-10.78,2.72,-0.48,-10.29,-10.29,-10.22
-10.67,2.43,-0.7,-8.54,-8.54,-8.26
-10.53,2.39,-0.81,-6.79,-6.79,-6.79
-10.47,2.36,-0.83,-4.97,-4.97,-4.97
-10.31,2.28,-0.83,-4.27,-4.2,-4.2
-10.13,2.14,-0.75,-4.27,-4.27,-4.27
-9.89,2.22,-0.74,-3.78,-3.78,-3.71
-9.55,2.46,-0.6,-2.38,-2.38,-1.96
-9.33,2.74,-0.46,0.56,0.56,1.12
-9.1,2.84,-0.56,3.08,3.08,3.36
-8.87,2.67,-0.66,2.66,2.66,2.66
-8.81,2.04,-0.66,-2.31,-2.31,-2.31
-9.41,1.71,-0.39,-5.18,-5.46,-5.46
-9.84,1.73,0.21,-5.74,-5.74,-5.6
-9.77,1.94,0.36,-5.04,-5.04,-5.04
-9.08,2.16,0.44,-6.72,-6.72,-6.72
-8.97,2.12,0.43,-7.42,-7.42,-7.42
-9.45,2.21,0.89,-2.31,-2.31,-2.31
-10.09,2.6,1.1,9.38,10.92,10.92
-10.42,3.02,1.32,17.64,17.64,17.64
-10.92,3.46,1.56,20.65,20.72,20.72
-10.78,3.35,1.48,21.63,21.63,21.98
-9.82,3.04,1.31,26.11,26.11,26.11
-8.96,2.75,0.81,36.96,38.57,38.57
-8.55,3.07,0.45,51.38,53.27,53.27
-8.69,3.45,0.4,61.88,62.72,62.72
-8.87,3.25,0.48,58.24,58.24,56.7
-8.88,2.51,0.44,43.12,43.12,41.02
-9.74,2.43,0.56,16.24,14.7,14.7
-9.51,2.79,0.6,-5.11,-5.11,-7.98
-9.16,2.68,0.68,-30.03,-30.03,-33.25
-8.99,1.27,0.51,-48.72,-48.72,-54.39
-9.31,1.97,0.38,-82.6,-82.6,-82.6
-9.16,1.73,0.34,-88.9,-88.9,-88.9
-8.93,1.73,0.45,-90.16,-90.16,-90.16
-8.74,1.94,0.55,-86.24,-84.07,-84.07
-8.57,1.82,0.78,-73.78,-73.78,-72.1
-8.82,1.68,0.95,-58.73,-58.73,-58.73
-9.11,1.33,1.1,-37.17,-37.17,-37.17
-9.7,1.35,1.03,-22.33,-19.74,-19.74
-10.03,1.67,0.63,3.85,3.85,6.44
-10.08,1.74,0.33,18.2,18.2,20.44
-9.96,1.48,-0.23,37.03,37.03,38.57
-10.23,1.35,-0.68,48.72,48.72,50.05
-10.75,0.96,-1.07,56.98,56.98,56.98
-11.26,0.67,-1.37,62.79,63.14,63.14
-11.46,0.63,-1.4,63.14,62.79,62.79
-11.39,0.94,-1.37,58.17,58.17,58.17
-11.19,1.35,-1.36,46.97,46.97,46.97
-10.93,1.88,-1.28,37.1,37.1,37.1
-10.55,2.15,-1.09,23.17,21.56,21.56
-9.99,2.22,-0.96,12.18,10.64,10.64
-9.55,2.14,-0.86,-2.94,-2.94,-4.34
-9.17,1.91,-0.83,-12.95,-14.21,-14.21
-8.84,1.71,-0.79,-30.66,-31.29,-31.29
-8.72,1.76,-0.88,-35,-35,-35.35
-8.6,1.73,-0.85,-37.38,-37.38,-37.38
-8.69,1.64,-0.72,-36.89,-36.89,-36.89
-9.15,1.61,-0.45,-34.86,-34.86,-34.86
-9.48,1.67,-0.19,-29.75,-29.75,-29.75
-9.65,1.84,-0.08,-25.34,-23.59,-23.59
-9.71,1.97,0.01,-18.34,-16.45,-16.45
-9.85,2.15,-0.02,-9.73,-9.73,-8.82
-9.92,2.18,-0.09,-2.1,-2.1,-1.4
-9.97,2.07,-0.14,4.55,4.55,5.39
-9.94,2,-0.29,12.46,12.46,12.46
-9.89,1.87,-0.42,17.29,17.29,17.29
-9.82,1.71,-0.56,21.28,21.28,21.28
-9.71,1.49,-0.73,22.89,22.89,22.89
-9.58,1.39,-0.82,22.33,22.33,22.33
-9.44,1.4,-0.91,20.65,20.37,20.37
-9.38,1.45,-0.89,18.69,18.69,18.48
-9.3,1.47,-0.79,15.82,15.82,15.4
-9.37,1.55,-0.64,11.97,11.97,11.97
-9.58,1.71,-0.46,9.52,9.52,9.52
-9.73,1.82,-0.31,4.34,4.34,4.34
-9.77,2.01,-0.21,0.84,-0.42,-0.42
-9.81,2.19,-0.2,-4.2,-4.2,-5.46
-9.83,2.3,-0.09,-9.73,-10.29,-10.29
-9.76,1.9,0.11,-18.48,-18.55,-18.55
-9.62,1.79,0.05,-18.2,-18.2,-18.2
-9.5,1.65,0.01,-17.08,-16.24,-16.24
-9.42,1.48,0,-14.77,-13.65,-13.65
-9.48,1.4,-0.04,-11.9,-11.48,-10.71
-9.52,1.38,-0.02,-8.61,-8.33,-8.33
-9.49,1.37,0,-5.04,-4.69,-4.69
-9.45,1.47,0,-1.26,-1.26,-1.26
-9.49,1.44,0.02,2.17,2.45,2.45
-9.65,1.4,0.06,5.11,5.11,5.11
-9.75,1.34,0.02,6.86,6.86,6.86
-9.89,1.45,0.02,7.49,7.49,7.49
-9.88,1.57,-0.03,7.7,7.77,7.56
-9.75,1.73,-0.06,7.14,7.07,7.07
-9.71,1.85,-0.07,5.46,5.46,5.46
-9.73,1.88,0.01,3.43,3.22,3.22
-9.75,1.87,0.05,1.75,0.98,0.98
-9.82,1.86,0.08,-0.14,-0.28,-0.56
-9.83,1.92,0.07,-1.12,-1.12,-1.12
-9.81,2.04,0.11,-1.89,-1.89,-1.96
-9.72,2.04,0.09,-2.87,-2.87,-2.87
-9.58,1.77,0.13,-8.82,-8.75,-8.75
-9.5,1.63,0.11,-6.65,-6.65,-6.65
-9.4,1.59,0.08,-4.83,-4.55,-4.55
-9.39,1.59,0.04,-1.96,-1.96,-1.54
-9.42,1.5,0.03,0.7,0.7,0.7
-9.57,1.53,0.05,3.36,3.36,3.36
-9.61,1.53,0.02,6.65,6.65,6.65
-9.68,1.61,-0.06,7.84,8.19,8.19
-9.89,1.56,-0.06,9.03,9.03,8.96
-9.94,1.63,-0.03,9.03,9.03,9.03
-9.98,1.7,-0.01,8.4,8.4,8.4
-9.96,1.85,0.02,7.56,7.14,7.14
-9.93,1.89,-0.01,5.81,5.25,5.25
-9.91,1.85,0.03,3.64,3.08,3.08
-9.8,1.78,0.01,1.75,1.75,1.4
-9.66,1.74,0.01,0.77,0.77,0.63
-9.6,1.75,-0.04,-0.07,-0.07,-0.07
-9.57,1.73,-0.01,-0.91,-0.91,-0.91
-9.57,1.65,-0.02,-0.98,-0.98,-0.91
-9.66,1.62,0.03,-0.21,-0.21,-0.14
-9.68,1.62,0.06,0.56,0.84,1.12
-9.57,1.61,0.01,1.82,1.82,2.17
-9.47,1.64,0,2.73,2.73,2.87
-9.41,1.66,0,3.85,3.85,4.13
-9.44,1.71,-0.03,4.83,4.83,5.04
-9.49,1.74,-0.03,5.53,5.53,5.6
-9.6,1.81,-0.04,5.81,5.67,5.67
-9.65,1.89,-0.08,5.32,5.32,5.18
-9.6,1.95,-0.11,3.57,3.57,3.5
-9.76,1.86,-0.12,-2.17,-2.17,-2.45
-9.75,1.81,-0.16,-4.76,-4.76,-4.76
-9.73,1.75,-0.17,-5.39,-5.39,-5.39
-9.77,1.66,-0.13,-5.67,-5.67,-5.67
-9.76,1.63,-0.14,-6.02,-6.02,-6.02
-9.73,1.57,-0.14,-6.44,-6.44,-6.44
-9.72,1.5,-0.13,-6.37,-6.37,-6.37
-9.72,1.53,-0.1,-5.39,-5.18,-5.18
-9.71,1.57,-0.11,-4.06,-3.92,-3.92
-9.75,1.7,-0.06,-2.8,-2.66,-2.66
-9.73,1.78,-0.06,-2.03,-1.68,-1.68
-9.73,1.79,0.02,-1.47,-1.47,-1.4
-9.71,1.76,0.03,-0.84,-0.7,-0.7
-9.69,1.76,0.05,0.21,0.21,0.35
-9.64,1.66,-0.01,0.91,1.19,1.33
-9.58,1.65,0,2.31,2.31,2.45
-9.55,1.69,0,3.5,3.5,3.71
-9.51,1.73,-0.02,4.62,4.62,4.62
-9.55,1.72,-0.03,4.55,4.55,4.55
-9.59,1.75,0,4.06,3.92,3.92
-9.69,1.76,0,1.61,1.33,1.33
-9.75,1.79,-0.02,-0.35,-0.56,-0.56
-9.74,1.79,-0.06,-2.73,-2.94,-2.94
-9.73,1.79,-0.09,-4.76,-4.76,-5.11
-9.71,1.74,-0.1,-6.58,-6.58,-6.58
-9.76,1.67,-0.09,-7.28,-7.49,-7.49
-9.85,1.67,-0.08,-8.12,-8.12,-8.26
-9.81,1.6,-0.09,-8.89,-8.89,-8.89
-9.79,1.56,-0.09,-8.61,-8.68,-8.68
-9.73,1.5,-0.06,-8.12,-7.7,-7.7
-9.67,1.43,-0.04,-6.79,-6.51,-6.09
-9.59,1.38,-0.05,-4.62,-4.34,-4.34
-9.57,1.44,-0.06,-2.17,-1.61,-1.61
-9.66,1.54,-0.03,0.63,0.84,0.84
-9.67,1.53,-0.01,2.87,2.87,2.94
-9.67,1.59,-0.05,4.06,4.06,4.13
-9.67,1.62,-0.05,5.39,5.39,5.39
-9.7,1.71,-0.07,6.3,6.3,6.3
-9.72,1.84,-0.08,6.58,6.58,6.58
-9.7,1.9,-0.09,5.81,5.81,5.81
-9.73,1.91,-0.11,4.62,4.41,3.99
-9.75,1.92,-0.12,2.94,2.66,2.66
-9.72,1.92,-0.09,0.56,0.56,0.56
-9.73,1.9,-0.11,-0.84,-1.05,-1.05
-9.71,1.88,-0.11,-2.24,-2.24,-2.24
-9.64,1.85,-0.14,-3.01,-3.22,-3.22
-9.53,1.79,-0.15,-3.22,-3.22,-3.22
-9.56,1.77,-0.14,-2.73,-2.66,-2.66
-9.54,1.75,-0.12,-0.91,-0.91,-0.91
-9.49,1.72,-0.11,-0.07,-0.07,-0.07
-9.57,1.74,-0.11,0.91,0.91,0.91
-9.7,1.75,-0.11,1.05,1.05,1.12
-9.77,1.76,-0.06,1.12,1.12,1.12
-9.79,1.69,-0.06,0.35,0.35,0.35
-9.84,1.65,-0.03,-0.07,-0.28,-0.28
-9.77,1.59,-0.04,-0.63,-0.63,-0.63
-9.71,1.56,-0.01,-0.7,-0.7,-0.7
-9.63,1.54,0.01,-0.21,-0.21,-0.21
-9.69,1.54,0.04,0.63,0.63,0.63
-9.64,1.55,0.02,1.19,1.26,1.26
-9.63,1.54,0.05,1.96,1.96,1.96
-9.64,1.6,0.04,3.01,3.01,3.01
-9.67,1.65,0.05,3.78,3.78,3.78
-9.63,1.62,0.03,3.99,4.06,4.06
-9.68,1.68,0.04,4.2,4.2,4.2
-9.71,1.7,0.03,4.34,4.27,4.27
-9.78,1.71,0.06,4.13,4.06,3.99
-9.75,1.78,0.01,2.8,2.66,2.52
-9.7,1.8,0,1.75,1.61,1.61
-9.67,1.76,-0.03,0.84,0.84,0.77
-9.69,1.73,-0.02,0.49,0.49,0.49
-9.52,1.75,-0.1,0.56,0.56,0.56
-9.48,1.78,-0.09,1.26,1.26,1.26
-9.45,1.78,-0.08,1.89,1.89,1.89
-9.47,1.74,-0.06,2.94,2.94,2.94
-9.54,1.75,-0.05,3.57,3.85,3.85
-9.64,1.77,-0.08,4.41,4.41,4.41
-9.74,1.79,-0.06,3.71,3.43,3.43
-9.87,1.72,-0.07,0.28,0.28,0
-9.84,1.72,-0.07,-1.19,-1.19,-1.19
-9.8,1.73,-0.05,-2.8,-2.8,-2.8
-9.74,1.72,-0.05,-3.36,-3.36,-3.36
-9.7,1.68,-0.06,-3.5,-3.5,-3.5
-9.67,1.61,-0.04,-3.43,-3.43,-3.43
-9.67,1.56,-0.07,-3.22,-3.22,-3.22
-9.69,1.49,-0.03,-2.73,-2.73,-2.73
-9.65,1.5,-0.01,-2.1,-2.1,-2.1
-9.6,1.54,0,-1.05,-0.56,-0.56
-9.59,1.57,0.02,0.28,0.42,0.49
-9.67,1.62,0.03,1.54,1.47,1.47
-9.71,1.64,0.06,2.31,2.31,2.31
-9.7,1.69,0.04,2.94,2.94,3.01
-9.68,1.72,0.04,3.08,3.08,3.08
-9.61,1.74,-0.05,3.22,3.22,3.22
-9.57,1.79,-0.08,3.5,3.5,3.5
-9.49,1.8,-0.1,3.71,3.5,3.5
-9.51,1.81,-0.13,3.5,3.5,3.5
-9.65,1.81,-0.14,3.01,3.01,3.01
-9.67,1.8,-0.12,2.59,2.59,2.59
-9.76,1.8,-0.15,0.91,0.77,0.56
-9.83,1.83,-0.11,-0.63,-0.63,-0.63
-9.8,1.76,-0.08,-1.4,-1.4,-1.54
-9.75,1.57,-0.13,-2.1,-2.1,-2.1
-9.79,1.58,-0.09,-1.61,-1.61,-1.61
-9.8,1.56,-0.06,-1.47,-1.26,-1.26
-9.75,1.55,-0.03,-0.56,-0.56,-0.56
-9.71,1.53,-0.04,0.35,0.77,0.77
-9.67,1.53,-0.01,2.1,2.1,2.1
-9.73,1.52,0.01,3.29,3.29,3.64
-9.72,1.53,0,4.27,4.27,4.27
-9.68,1.5,-0.03,5.25,5.25,5.25
-9.57,1.48,-0.08,5.67,5.67,5.67
-9.49,1.5,-0.11,5.81,5.81,5.81
-9.47,1.55,-0.13,5.88,5.88,5.88
-9.51,1.62,-0.14,5.67,5.67,5.67
-9.55,1.63,-0.15,5.39,5.39,5.39
-9.63,1.63,-0.2,4.62,4.62,4.62
-9.71,1.68,-0.22,3.57,3.57,3.57
-9.76,1.75,-0.23,2.38,2.38,2.31
-9.76,1.75,-0.29,0.77,0.77,0.77
-9.76,1.8,-0.3,-0.07,-0.07,-0.07
-9.75,1.86,-0.3,-0.56,-0.56,-0.56
-9.74,1.89,-0.33,-0.63,-0.63,-0.63
-9.72,1.85,-0.33,-0.84,-0.84,-0.91
-9.76,1.81,-0.34,-1.19,-1.26,-1.26
-9.76,1.79,-0.34,-1.47,-1.47,-1.47
-9.72,1.72,-0.33,-2.03,-2.03,-2.03
-9.66,1.72,-0.3,-2.45,-2.45,-2.45
-9.64,1.72,-0.29,-2.66,-2.66,-2.73
-9.66,1.64,-0.28,-2.94,-2.94,-3.01
-9.6,1.62,-0.3,-3.36,-3.36,-3.36
-9.55,1.63,-0.31,-3.64,-3.5,-3.5
-9.52,1.67,-0.3,-3.43,-3.43,-3.43
-9.56,1.74,-0.26,-2.94,-2.94,-2.94
-9.64,1.78,-0.25,-2.38,-2.38,-2.38
-9.71,1.85,-0.23,-2.66,-2.66,-2.66
-9.75,1.89,-0.21,-3.01,-3.01,-3.01
-9.79,1.87,-0.18,-3.36,-3.36,-3.36
-9.76,1.79,-0.19,-3.71,-3.71,-3.71
-9.69,1.7,-0.17,-3.71,-3.57,-3.57
-9.63,1.55,-0.19,-3.29,-3.01,-3.01
-9.59,1.45,-0.2,-2.45,-2.45,-2.45
-9.51,1.33,-0.26,-1.05,-1.05,-1.05
-9.45,1.3,-0.3,17.78,0.07,0.07
-9.47,1.33,-0.33,0.84,1.4,1.4
-9.51,1.33,-0.34,2.24,2.45,2.45
-9.37,1.33,-0.41,3.57,3.71,3.71
-9.41,1.35,-0.33,4.41,4.41,4.62
-9.71,1.28,-0.35,5.74,6.37,7
-9.73,1.27,-0.44,10.22,10.22,10.22
-9.71,1.54,-0.59,15.61,15.82,15.82
-9.66,1.9,-0.52,15.89,15.75,15.75
-9.61,2.11,-0.7,15.33,15.12,14.84
-9.55,2.31,-0.78,13.72,13.58,13.58
-9.66,2.46,-0.79,10.85,10.36,10.36
-9.5,2.25,-0.92,5.95,5.81,5.81
-9.5,2.31,-1.09,4.55,4.2,4.13
-9.69,2.45,-1.2,2.87,2.87,2.87
-9.83,2.79,-1.2,0.49,0.49,0.49
-9.79,2.77,-1.39,-3.36,-3.85,-3.85
-9.81,2.82,-1.45,-6.23,-7.7,-7.7
-9.64,2.85,-1.51,-11.34,-11.34,-11.34
-9.58,2.87,-1.53,-15.47,-15.82,-15.82
-9.46,2.93,-1.58,-17.85,-18.06,-18.06
-9.29,2.54,-1.48,-19.53,-19.53,-19.6
-9.22,2.28,-1.44,-19.81,-19.88,-19.74
-8.94,2.25,-1.55,-19.25,-18.76,-18.48
-9.12,2.36,-1.42,-15.82,-15.82,-15.26
-9.37,2.32,-1.31,-11.69,-11.69,-10.99
-9.47,2.42,-1.33,-6.37,-6.37,-6.37
-9.25,2.41,-1.34,-4.34,-4.06,-4.06
-8.66,3.24,-1.79,3.22,3.85,4.06
-8.86,1.23,-1.66,3.64,3.64,3.85
-9.37,2.76,-1.5,3.43,3.43,3.43
-9.73,2.84,-1.51,2.03,2.03,2.03
-9.78,2.84,-1.37,-0.63,-0.63,-0.63
-9.6,2.98,-1.41,-4.27,-4.9,-4.9
-9.42,3.26,-1.55,-10.29,-10.29,-10.78
-9.35,3.56,-1.49,-14.98,-14.98,-15.68
-9.24,3.61,-1.42,-22.47,-22.47,-22.47
-9.15,3.51,-1.52,-26.88,-28.07,-28.07
-9.15,3.35,-1.44,-30.73,-30.73,-31.22
-8.96,2.98,-1.43,-31.01,-31.01,-31.01
-8.82,2.54,-1.46,-27.58,-27.58,-27.58
-8.88,2.4,-1.53,-23.8,-23.8,-23.8
-9.07,2.21,-1.55,-20.72,-20.72,-20.72
-9.21,1.99,-1.51,-17.01,-16.73,-16.73
-9.43,1.88,-1.49,-14.56,-14.56,-14.56
-9.69,1.82,-1.4,-11.13,-10.78,-10.78
-9.92,1.83,-1.41,-9.17,-8.19,-8.19
-10.05,1.82,-1.38,-6.09,-6.09,-6.09
-10.24,1.98,-1.41,-2.52,-2.52,-2.52
-10.6,2.45,-1.45,-0.14,-0.14,-0.14
-10.78,2.67,-1.39,0.63,0.63,0.63
-10.73,2.7,-1.35,0.14,-0.14,-0.14
-10.69,2.79,-1.32,0,0.21,0.21
-10.43,2.83,-1.24,2.66,2.94,2.94
-10.11,2.83,-1.2,5.67,5.67,5.95
-9.65,2.76,-1.16,7.77,7.77,7.77
-9.32,2.56,-1.08,8.82,8.82,8.96
-9.02,2.38,-1.04,9.17,9.24,9.45
-8.98,2.24,-0.88,10.15,10.15,10.15
-8.98,2.24,-0.56,11.34,11.34,11.48
-9.14,2.45,-0.33,11.9,11.97,11.83
-9.37,2.75,-0.05,12.04,12.04,12.11
-9.72,3.08,0.36,13.44,13.44,13.65
-10.33,3.28,0.49,15.19,15.19,15.19
-10.64,3.67,0.4,17.01,17.29,17.29
-10.94,4.46,-0.09,19.25,21.14,21.14
-11.39,5.51,-0.49,25.76,25.76,25.76
-11.8,5.92,-0.62,27.23,27.23,27.23
-12.78,5.73,-0.23,23.8,23.8,23.8
-13.96,5.35,0.26,22.54,22.4,22.4
-14.16,4.86,0.09,24.5,25.2,25.2
-13.63,5.08,-0.23,29.33,32.69,32.69
-13.23,5.86,-0.52,38.71,41.23,41.23
-13.49,6.47,-0.12,42.77,42,42
-13.53,5.7,0.15,38.01,38.01,38.01
-13.01,4.76,-0.09,36.82,36.82,36.82
-11.46,3.86,-0.08,37.52,37.52,37.38
-10.71,4.21,0.28,31.08,31.08,31.08
-9.57,4.16,0.43,10.57,10.57,10.57
-8.28,4.18,0.49,-2.66,-7.56,-7.56
-7.28,3.51,0.81,-24.99,-31.99,-31.99
-5.83,0.79,1.21,-58.45,-58.45,-62.02
-4.07,-1.31,0.77,-84.91,-84.91,-90.86
-3.24,-3.4,0.69,-113.12,-113.12,-113.12
-3.41,-6.63,0.89,-126.98,-126.42,-126.42
-3.14,-8.81,1.23,-120.26,-114.24,-114.24
-2.26,-9.92,1.42,-98.77,-87.22,-87.22
-2.65,-9.51,1.01,-59.57,-59.57,-59.57
-2.27,-9.45,-0.31,-23.66,-19.39,-19.39
-2.43,-8.87,-0.29,14.28,19.32,19.32
-3.77,-6.61,-0.18,47.53,51.24,51.24
-4.6,-5.43,-0.62,71.96,71.96,73.01
-5.33,-4.98,-0.95,75.95,76.72,76.93
-6.19,-4.01,-0.68,78.12,78.19,78.26
-7.68,-1.98,-0.41,76.3,76.3,76.3
-7.79,-1.39,-0.4,61.53,59.08,59.08
-7.98,-1.63,-0.15,40.95,38.57,38.57
-8.76,-1.4,0.11,28.35,24.01,24.01
-9.11,-0.52,-0.18,19.11,18.34,16.66
-8.57,-0.13,-0.37,8.96,8.96,7.63
-9.48,0.19,0.56,-12.74,-12.74,-12.74
-8.74,0.12,-0.44,-0.49,-0.49,-0.49
-10.02,0.11,0.25,-1.68,-1.68,-1.68
-10.65,0.03,0.52,-0.63,0.21,0.7
-10.48,0.12,0.36,3.08,3.08,3.92
-10.65,0.6,0.95,3.29,3.29,1.89
-11.53,1.26,1.74,-1.68,-1.68,-1.68
-11.53,1.6,1.41,-3.01,-3.01,-3.01
-11.11,1.57,1.15,-3.92,-3.92,-3.92
-11.27,2.07,1.53,-6.65,-7.77,-7.77
-11.83,2.55,2,-11.41,-11.41,-11.41
-11.59,2.46,1.98,-14.77,-15.68,-15.68
-10.86,2.05,1.81,-16.24,-16.24,-16.24
-10.79,2.16,2.26,-13.86,-13.86,-13.37
-11.38,2.81,2.89,-7.84,-7.84,-7.84
-12.59,3.77,2.81,-5.32,-5.32,-5.46
-12.45,3.55,2.57,-4.9,-4.9,-4.9
-12.06,3.46,2.27,-1.75,-1.12,-1.12
-11.95,3.71,1.92,2.31,2.8,2.8
-11.48,3.73,1.54,5.18,6.44,6.44
-10.94,3.62,1,8.82,10.71,10.71
-10.39,3.51,0.36,16.52,17.5,17.5
-9.71,3.2,-0.22,24.29,24.29,25.06
-9.42,2.82,-0.34,29.12,29.61,29.61
-9.05,2.45,-0.61,31.64,31.64,31.57
-8.65,2.09,-0.61,30.52,30.52,30.24
-8.32,1.65,-0.59,25.83,25.83,25.83
-7.81,0.86,-0.61,21.7,21.7,20.44
-7.63,0.24,-0.5,14.63,14.63,14.63
-9.31,1.25,-0.22,1.4,1.4,1.4
-10.12,2.36,-0.32,6.72,6.72,6.72
-10.84,2.9,-0.34,15.68,16.8,16.8
-11.8,4.19,-0.28,29.82,31.15,31.57
-11.53,4.88,-0.31,34.02,34.02,34.02
-11.19,5.38,-0.4,34.44,34.44,34.44
-10.96,5.4,-0.29,31.92,30.17,30.17
-10.83,5.1,-0.22,26.74,26.11,24.5
-10.53,4.81,0.02,20.65,20.65,19.88
-9.74,4.53,0.07,13.93,13.93,13.16
-8.81,4.37,0.03,5.53,5.53,4.62
-8.24,4.31,0.12,-1.82,-1.82,-2.87
-8.03,4.04,0.41,-9.8,-9.8,-9.8
-7.63,3.54,0.49,-19.53,-19.53,-19.53
-7.17,3.1,0.42,-25.13,-25.13,-25.13
-7.15,3.06,0.38,-27.09,-27.23,-27.23
-7.74,3.25,0.53,-26.81,-26.81,-26.39
-8.46,3.42,0.54,-24.22,-24.01,-24.01
-9.17,3.47,0.69,-21.84,-21.84,-21.49
-10.11,3.7,0.88,-19.25,-19.25,-19.25
-10.57,3.65,1,-15.82,-15.82,-15.82
-10.81,3.36,0.99,-15.19,-15.19,-15.19
-11,3.31,0.51,-13.86,-13.86,-13.86
-11.18,3.72,0.21,-7.42,-5.25,-5.25
-11.22,4.36,-0.21,1.26,1.26,1.89
-11.45,4.51,-1.12,5.18,5.18,5.18
-11.71,4.53,-2.29,10.36,10.36,10.36
-11.78,4.6,-2.6,17.85,17.85,17.85
-11.62,4.84,-2.29,26.04,26.04,26.04
-11.39,5.37,-1.69,25.2,23.31,23.31
-10.06,5.25,0.08,-8.05,-10.64,-10.64
-9.26,5.02,0.3,-28.35,-28.35,-35.07
-8.46,4.99,0.29,-45.22,-45.22,-47.18
-7.7,5.22,0.05,-60.41,-60.41,-61.46
-7.18,5.35,-0.06,-67.48,-67.48,-68.04
-6.83,5.06,0.06,-70.98,-70.98,-71.26
-6.66,4.69,-0.17,-70,-70,-70
-6.73,4.73,-0.22,-60.48,-60.48,-60.48
-6.78,5.17,0.11,-36.61,-36.61,-36.61
-6.88,5.49,0.22,-18.34,-18.34,-18.34
-7.33,5.74,0.39,-6.3,-6.3,-6.3
-7.69,5.85,0.4,7.14,8.68,8.68
-7.84,6.14,0.57,16.1,20.44,20.44
-7.67,6.12,0.39,28.35,28.35,28.35
-7.41,6.02,0.17,30.52,30.31,30.31
-7.22,6.42,0.4,27.3,26.53,26.53
-7.06,6.7,0.58,18.2,18.2,17.08
-6.36,6.25,0.14,10.01,10.01,8.75
-6.23,5.89,0.1,-3.22,-3.22,-3.22
-6.59,6.1,0.39,-8.96,-10.43,-10.43
-6.75,6.22,0.67,-13.02,-13.3,-13.3
-6.06,5.89,0.44,-14.35,-14.35,-14.35
-5.4,5.61,0.12,-16.24,-16.73,-16.73
-5.62,5.78,0.4,-19.88,-19.88,-20.09
-6.07,6.09,1.01,-19.95,-19.95,-19.74
-6.21,6.03,1.1,-19.25,-19.25,-19.25
-5.96,5.79,0.89,-18.9,-18.9,-18.9
-5.83,5.85,0.67,-18.9,-18.83,-18.83
-6.4,7.65,1.14,-15.33,-15.61,-15.61
-6.72,7.72,0.85,-18.06,-18.06,-18.13
-6.78,7.55,0.67,-19.04,-19.18,-19.18
-7.02,7.46,0.9,-19.39,-19.53,-19.53
-6.86,7.28,0.88,-21.14,-21.14,-21.49
-6.08,6.77,0.58,-23.8,-24.78,-25.48
-5.4,6.32,0.44,-28.35,-28.35,-29.75
-4.92,6.06,0.45,-31.78,-31.78,-31.78
-4.69,5.8,0.31,-31.01,-31.01,-30.66
-4.49,5.76,0.36,-27.16,-27.16,-25.97
-4.35,5.77,0.11,-22.12,-22.12,-22.12
-4.29,6.17,-0.13,-15.19,-15.19,-15.19
-4.53,6.83,-0.03,-8.26,-8.26,-5.95
-4.91,7.48,0.05,1.82,1.82,1.82
-5.02,7.62,-0.2,13.86,13.86,13.86
-4.95,7.53,-0.49,22.47,22.47,24.92
-5.29,7.56,-0.48,31.08,32.48,32.48
-6.01,7.88,-0.15,42.63,43.96,43.96
-5.99,8.04,-0.44,51.1,52.08,53.55
-5.99,8.54,-0.47,54.67,54.32,54.32
-6.44,8.87,-0.2,48.37,48.37,48.37
-6.64,8.72,0.16,39.48,38.64,38.64
-7.1,8.73,0.59,34.58,32.55,32.55
-7.03,8.58,0.75,29.54,27.93,27.93
-6.24,8.37,0.72,24.92,24.29,23.17
-4.8,7.56,0.39,18.27,18.27,17.43
-3.86,6.71,0.07,13.02,13.02,12.18
-3.47,6,0.09,11.13,11.13,11.13
-3.83,6.18,0.68,13.72,13.72,13.72
-4.24,6.09,0.88,15.4,15.4,15.4
-4.73,5.89,1.06,15.47,15.47,15.47
-5.43,5.92,1.92,16.94,16.94,17.29
-6.27,5.73,2.39,19.67,19.67,21.56
-6.49,5.08,2.24,25.06,25.06,25.69
-6.76,4.76,2.08,31.15,31.15,31.64
-7.33,4.91,2.8,34.09,34.09,34.51
-7.59,4.77,2.85,35.42,35.42,35.42
-7.67,4.46,2.46,35.21,35.21,35.07
-7.55,4.14,1.92,34.23,34.23,33.88
-7.37,3.75,1.32,33.95,33.95,34.23
-7.08,3.95,1.14,36.33,36.33,36.33
-6.76,4.41,1.06,37.1,37.1,37.1
-6.64,4.89,1.04,33.11,33.11,33.11
-6.85,5.28,0.96,26.88,24.57,24.57
-6.89,5.3,0.6,17.64,17.64,17.64
-7.08,5.42,0.58,9.24,9.24,9.24
-7.55,6.65,1.53,5.46,5.46,5.46
-7.82,7.42,1.67,-0.21,-0.21,-0.21
-7.51,7.57,0.84,-7.14,-7.91,-7.91
-7.27,6.81,0.14,-16.87,-17.85,-17.85
-7.65,6.53,0.43,-22.54,-23.17,-23.17
-8.65,6.76,1.13,-26.25,-26.53,-26.53
-9.27,6.89,1.16,-28.7,-30.31,-30.31
-9.37,6.81,0.92,-34.44,-34.44,-34.44
-9.4,6.34,0.34,-40.18,-40.67,-40.67
-10.18,5.81,0.42,-42.21,-42.7,-42.7
-10.84,5.38,0.61,-41.02,-40.67,-40.67
-10.87,5.01,0.59,-37.73,-37.1,-37.1
-10.62,4.68,0.2,-31.5,-31.5,-31.01
-10.66,4.52,0.21,-27.65,-27.65,-26.95
-10.66,4.19,0.02,-21.77,-21.77,-21.77
-10.35,3.96,-0.08,-16.24,-16.24,-16.24
-10.18,4.04,-0.16,-7.91,-7.91,-7.91
-10.12,4.49,-0.32,3.43,3.43,3.43
-9.87,4.74,-0.57,7.42,7.84,7.84
-9.57,4.79,-1.03,9.52,9.52,9.66
-9.37,4.69,-1.09,10.01,10.29,10.29
-9.44,4.58,-1.28,11.41,11.41,11.41
-9.51,4.68,-1.19,12.88,13.16,13.16
-9.49,4.93,-1.27,13.37,12.95,12.95
-9.42,5.09,-1.32,11.34,9.73,9.73
-9.23,4.96,-1.48,4.83,4.83,4.83
-9.18,4.7,-1.48,-2.52,-3.22,-3.22
-8.98,4.35,-1.43,-8.19,-8.89,-8.89
-8.82,3.98,-1.43,-12.25,-14.14,-14.14
-8.85,3.84,-1.26,-17.08,-17.85,-18.83
-8.93,3.62,-1.26,-22.33,-22.75,-22.75
-8.91,3.56,-1.29,-25.48,-25.69,-25.69
-8.98,3.51,-1.28,-27.02,-27.44,-27.44
-9.07,3.36,-1.21,-28.07,-28.07,-28.07
-9.4,3.09,-0.92,-26.04,-25.9,-25.9
-9.53,2.9,-0.84,-24.29,-24.29,-24.15
-9.55,2.64,-0.69,-22.68,-22.68,-22.4
-9.55,2.48,-0.53,-18.97,-18.97,-18.55
-9.5,2.34,-0.37,-15.75,-14.28,-14.28
-9.17,2.5,-0.06,-1.54,-1.54,0.63
-8.9,2.69,0.01,10.22,10.22,10.22
-8.57,2.84,-0.05,18.69,18.69,18.69
-8.44,3.14,-0.09,29.33,30.24,30.24
-8.53,3.5,-0.2,35.14,36.19,37.73
-8.63,3.8,-0.22,41.3,41.3,42
-8.68,4.19,-0.37,46.9,46.9,47.25
-8.63,4.51,-0.62,49.21,49.21,49.84
-8.71,4.94,-0.84,49.35,49.35,49.35
-8.82,5.07,-0.93,43.75,43.75,43.75
-8.83,5.06,-1.02,36.4,36.4,36.4
-8.79,4.97,-1.11,27.58,27.58,27.58
-8.69,4.9,-1.09,20.58,18.13,18.13
-8.64,4.8,-1.07,9.38,9.38,8.19
-8.59,4.67,-0.99,-2.94,-2.94,-2.94
-8.44,4.4,-0.93,-9.1,-10.01,-10.01
-8.17,4.02,-0.85,-14.77,-14.77,-15.4
-8.21,3.7,-0.73,-19.04,-19.04,-19.04
-8.53,3.67,-0.61,-20.51,-20.51,-20.51
-8.66,3.82,-0.73,-19.74,-19.25,-19.25
-8.83,4.25,-0.94,-16.45,-16.45,-15.19
-9.01,4.7,-1.22,-10.29,-9.59,-9.59
-9.25,4.77,-1.35,-4.83,-4.83,-4.2
-9.45,4.65,-1.43,0.77,0.77,1.12
-9.55,4.56,-1.55,3.92,3.92,3.92
-9.54,4.41,-1.67,7,7.35,7.35
-9.44,4.35,-1.68,8.26,8.68,8.68
-9.21,4.39,-1.74,8.82,8.54,8.54
-8.87,4.39,-1.81,7.77,7.63,7
-8.52,4.35,-1.79,5.53,5.18,4.2
-8.33,4.37,-1.83,1.4,-0.56,-0.56
-8.15,4.25,-1.72,-5.81,-5.81,-5.81
-8.13,4.07,-1.55,-11.9,-11.9,-11.9
-8.23,4.04,-1.37,-15.68,-15.82,-15.82
-8.16,4.02,-1.34,-15.26,-15.26,-15.26
-8.21,4.16,-1.41,-11.34,-10.78,-10.78
-8.43,4.32,-1.45,-5.53,-4.62,-4.62
-8.71,4.44,-1.49,-0.42,-0.42,17.5
-8.94,4.44,-1.48,4.06,4.06,4.06
-9.15,4.46,-1.42,7.07,7.07,7.07
-9.3,4.47,-1.35,7.63,7.63,7.63
-9.33,4.38,-1.13,5.53,5.04,5.04
-9.14,4.25,-1.01,1.61,1.05,1.05
-8.8,4.04,-0.9,-5.53,-5.53,-6.23
-8.22,3.84,-0.84,-10.57,-10.57,-10.57
-8.28,3.54,-0.76,-16.31,-16.31,-16.31
-8.47,3.23,-0.48,-21.7,-21.7,-21.7
-8.51,3.08,-0.52,-24.29,-24.57,-24.57
-8.56,2.9,-0.62,-25.97,-26.6,-26.6
-8.99,2.9,-0.67,-28.21,-28.21,-28.21
-9.51,2.86,-0.67,-27.65,-27.37,-27.37
-9.91,2.86,-0.76,-23.03,-23.03,-23.03
-9.95,2.8,-0.89,-16.52,-16.52,-16.52
-9.87,2.74,-0.98,-6.37,-5.32,-5.32
-9.98,2.58,-0.92,0.42,3.78,3.78
-10.25,2.45,-0.7,9.38,10.5,12.81
-10.49,2.3,-0.57,17.92,19.04,20.86
-10.59,2.24,-0.43,24.92,25.48,25.48
-10.37,2.18,-0.24,29.96,30.24,30.24
-10,2.19,-0.16,31.29,31.29,31.43
-9.7,2.07,-0.1,31.08,31.08,30.87
-9.67,1.89,0.2,29.26,29.26,29.12
-9.68,1.77,0.3,27.3,27.3,26.88
-9.65,1.84,0.32,24.92,24.92,24.92
-9.48,1.99,0.27,21.98,21.98,21.98
-9.17,2.15,0.22,19.6,19.6,19.6
-8.54,2.59,0.14,19.32,19.32,19.32
-8.77,2.76,0.28,20.51,20.65,20.65
-9.19,2.93,0.4,20.65,20.65,20.65
-9.68,3.24,0.42,20.23,20.23,19.81
-9.93,3.48,0.32,18.69,18.69,18.69
-9.95,3.57,0.21,14.07,14.07,14.07
-9.9,3.46,0.19,9.87,9.87,8.19
-9.83,3.23,0.2,2.73,2.73,2.73
-9.69,2.95,0.19,-7,-7,-7
-9.43,2.72,0.09,-14.84,-14.84,-14.84
-9.17,2.61,0.01,-22.12,-22.12,-22.12
-8.87,2.5,-0.12,-27.58,-27.58,-27.58
-8.67,2.29,-0.23,-32.34,-32.34,-32.76
-8.61,2.16,-0.28,-34.72,-34.72,-34.72
-8.76,2.01,-0.3,-33.18,-33.18,-33.18
-8.93,2.01,-0.33,-28.28,-28.28,-28.28
-9.19,2.05,-0.38,-21.84,-20.65,-20.65
-9.48,2.17,-0.4,-11.55,-10.57,-10.57
-11.01,2.18,-0.51,-3.92,-3.92,-2.87
-10.06,2.16,-0.58,3.29,3.29,4.27
-10.24,2.08,-0.66,8.47,10.08,10.92
-10.34,1.94,-0.77,14.91,14.91,15.61
-10.39,1.91,-0.92,21.77,21.77,22.33
-10.29,2,-1.03,28.21,28.21,28.56
-10.25,2.15,-0.93,29.68,29.68,29.61
-10.21,2.25,-0.88,28.91,28.91,28.91
-10.18,2.48,-0.74,26.95,26.67,26.67
-10.05,2.64,-0.74,24.36,24.08,24.08
-9.92,2.79,-0.73,21.7,21.35,21.35
-9.75,2.93,-0.76,19.53,18.2,18.2
-9.42,2.98,-0.78,16.17,15.82,15.05
-9.05,2.96,-0.78,13.3,12.88,12.18
-8.74,2.87,-0.74,10.5,10.15,10.15
-8.57,2.82,-0.67,9.1,9.1,9.1
-8.59,2.78,-0.53,5.95,5.32,5.32
-8.81,2.74,-0.41,3.01,2.17,2.17
-9.21,2.7,-0.3,-0.63,-1.68,-1.68
-9.5,2.61,-0.25,-4.9,-4.9,-6.16
-9.92,2.31,-0.3,-19.46,-19.46,-20.09
-10.01,2.15,-0.38,-25.06,-25.06,-25.06
-9.94,2,-0.45,-30.66,-30.66,-30.66
-9.8,1.78,-0.48,-33.74,-34.23,-34.23
-9.7,1.58,-0.44,-38.15,-38.15,-38.15
-9.63,1.5,-0.42,-40.18,-40.18,-40.18
-9.57,1.46,-0.38,-40.53,-40.53,-40.53
-9.54,1.4,-0.35,-40.18,-39.97,-39.97
-9.49,1.32,-0.35,-39.27,-39.06,-38.78
-9.53,1.24,-0.24,-37.24,-37.24,-36.89
-9.62,1.15,-0.24,-34.02,-34.02,-33.39
-9.62,1.02,-0.31,-26.95,-26.95,-26.95
-9.63,0.87,-0.41,-20.3,-20.3,-20.3
-9.73,0.68,-0.43,-14.98,-14,-14
-9.82,0.59,-0.52,-5.46,-5.46,-4.41
-9.88,0.56,-0.62,1.82,2.87,2.87
-9.85,0.55,-0.76,11.9,11.9,11.9
-9.94,0.63,-0.76,17.57,19.25,19.25
-10.1,0.82,-0.68,24.64,24.64,24.64
-10.26,0.94,-0.55,27.65,27.65,27.65
-10.28,1.1,-0.53,28.91,28.98,28.98
-10.21,1.28,-0.42,29.05,28.84,28.84
-10.27,1.43,-0.32,27.09,27.09,26.25
-10.16,1.53,-0.26,21.63,21.63,21.63
-9.99,1.49,-0.22,16.03,15.61,15.61
-9.77,1.45,-0.22,12.39,12.04,12.04
-9.62,1.43,-0.22,7.56,7.56,7
-9.56,1.41,-0.13,3.15,3.15,3.15
-9.5,1.4,-0.04,-3.08,-3.92,-3.92
-9.48,0.82,0.26,-19.81,-20.3,-20.3
-9.29,0.59,0.39,-24.22,-24.64,-24.64
-9,0.36,0.46,-29.19,-29.19,-29.47
-8.98,0.43,0.79,-32.76,-32.76,-32.76
-9.33,0.83,1,-32.69,-32.62,-32.62
-9.78,1.12,1.09,-33.04,-33.04,-33.04
-10.14,1.43,1.12,-34.65,-34.65,-34.65
-10.25,1.55,0.99,-36.75,-36.75,-36.75
-10.26,1.47,0.78,-38.5,-38.5,-38.5
-10.1,1.33,0.61,-39.13,-39.13,-39.13
-9.93,1.02,0.41,-38.64,-38.64,-38.64
-9.82,0.68,0.27,-37.03,-37.03,-37.03
-9.73,0.5,0.09,-33.18,-32.69,-32.69
-9.67,0.42,-0.01,-29.47,-29.47,-29.47
-9.68,0.39,-0.07,-23.38,-23.38,-23.38
-9.73,0.5,-0.09,-19.67,-19.67,-19.67
-9.93,0.83,-0.11,-14.14,-14.14,-14.14
-10.12,1.04,-0.11,-11.2,-11.2,-11.2
-10.26,1.23,-0.13,-10.08,-10.08,-10.08
-10.51,1.36,-0.09,-10.78,-11.2,-11.2
-10.83,1.51,0.03,-13.44,-13.44,-14.35
-10.91,1.53,0.08,-19.67,-19.67,-19.67
-10.64,1.34,-0.05,-25.69,-25.69,-25.69
-9.77,0.83,-0.13,-34.44,-35.35,-36.75
-9.81,0.67,0.09,-40.88,-41.86,-41.86
-10,0.43,0.41,-50.82,-51.73,-51.73
-9.71,-0.14,0.46,-57.26,-57.26,-57.89
-9.46,-0.47,0.45,-59.78,-59.78,-59.78
-9.16,-0.89,0.52,-59.29,-58.8,-58.8
-8.71,-1.56,0.62,-55.58,-55.58,-54.74
-8.17,-2.23,0.55,-43.68,-43.68,-43.68
-7.87,-2.71,0.58,-33.18,-31.43,-31.43
-8.17,-2.75,0.78,-18.76,-15.4,-15.4
-9,-2.53,1.13,-4.97,-3.57,-3.57
-9.51,-2.53,1.34,7.63,7.63,7.63
-9.89,-2.44,1.53,19.53,20.79,20.79
-10.21,-1.97,1.75,30.03,30.03,30.03
-10.11,-1.82,1.76,30.24,30.24,30.24
-9.9,-1.74,1.78,30.38,30.38,30.38
-9.76,-1.59,1.75,31.71,31.85,31.85
-9.38,-1.13,1.34,32.06,32.06,32.06
-8.99,-1.27,1.3,32.34,32.34,32.34
-8.77,-1.34,1.08,34.16,34.16,34.37
-8.82,-1.05,1,35.77,36.19,36.26
-9.22,-0.5,0.89,36.54,36.54,36.54
-9.52,0.03,0.61,35.42,35.35,35.35
-9.76,0.48,0.42,33.39,31.92,31.92
-10.09,0.5,0.12,29.33,28.77,28.07
-10.5,0.74,0.01,26.39,26.04,26.04
-10.77,0.89,-0.11,23.24,21.98,21.49
-10.92,0.99,-0.15,18.48,17.08,16.38
-10.92,0.89,-0.13,13.02,13.02,11.13
-10.69,0.47,-0.13,8.82,8.82,8.61
-10.43,0.14,-0.13,7.7,7.7,7.84
-10.24,0.07,-0.08,8.61,8.61,8.61
-9.82,-0.17,-0.05,10.01,10.01,10.01
-9.54,-0.43,-0.07,12.39,12.88,12.88
-9.38,-0.64,0.03,16.17,16.66,16.66
-9.4,-0.85,0.18,19.88,20.37,20.37
-9.52,-0.75,0.35,24.08,24.08,24.36
-9.73,-0.46,0.43,25.06,25.06,25.06
-9.7,-0.34,0.46,23.87,23.17,23.17
-9.66,-0.25,0.6,20.58,20.58,20.58
-9.81,-0.25,0.76,16.94,16.94,16.94
-9.95,-0.14,0.86,15.05,14.49,14.49
-9.65,-0.23,0.98,12.95,12.95,12.88
-9.37,-0.1,0.97,12.18,12.18,12.39
-8.75,0.11,0.94,12.39,12.39,12.39
-8,-0.27,0.52,10.99,10.99,10.99
-8.74,-0.54,0.79,10.15,10.43,10.43
-10.09,0,0.28,12.25,12.25,12.25
-10.48,-0.02,-0.18,-2.38,-2.38,-2.38
-10.19,-0.09,-0.46,-2.03,-2.03,-2.03
-9.42,0.34,-0.67,-1.61,-1.54,-1.54
-9.08,0.39,-0.62,-1.61,-1.61,-1.47
-9.02,0.46,-0.57,-0.63,-0.07,0.35
-9.26,0.51,-0.63,3.71,3.71,3.71
-9.29,0.36,-0.67,10.71,11.55,11.55
-9.4,0.15,-0.7,14.63,16.03,16.03
-9.74,-0.1,-0.76,18.69,18.97,18.97
-10.23,-0.09,-0.84,21.35,21.77,21.77
-10.68,0.24,-1.01,21.21,21.21,20.44
-10.95,0.47,-1.07,14.91,14.91,13.72
-11.09,0.59,-1.05,3.57,3.57,3.57
-11.12,0.66,-1.03,-2.59,-2.59,-2.59
-10.92,0.56,-1.03,-12.11,-12.11,-12.11
-10.64,0.43,-1.1,-18.83,-18.83,-18.83
-10.38,0.24,-1.08,-23.73,-23.73,-23.73
-10.11,-0.06,-1.08,-26.39,-26.67,-26.67
-9.87,-0.3,-1.05,-27.86,-27.86,-27.86
-9.6,-0.41,-1.05,-27.51,-27.51,-27.51
-9.49,-0.43,-1.04,-25.13,-25.13,-25.13
-9.49,-0.37,-1.05,-22.75,-21.91,-21.91
-9.49,-0.26,-1.01,-18.83,-18.83,-17.78
-9.46,-0.19,-1,-14.56,-14.56,-14.56
-9.49,0.04,-0.93,-8.4,-8.4,-8.4
-9.6,0.22,-0.85,-4.55,-3.99,-3.99
-9.82,0.31,-0.86,-0.98,-0.98,-0.56
-10.02,0.43,-0.93,3.36,3.36,3.36
-10.09,0.55,-1.01,5.25,5.74,5.74
-10.08,0.79,-1.19,7.28,7.28,7.28
-10.09,0.92,-1.34,8.75,8.75,8.75
-10.17,1.05,-1.4,9.38,9.38,9.45
-10.21,1.19,-1.46,9.73,9.73,9.73
-10.12,1.16,-1.43,8.47,8.47,8.47
-9.94,1.14,-1.33,6.3,6.3,6.3
-9.92,1.07,-1.19,4.2,3.85,3.85
-9.71,1.07,-0.78,-3.08,-3.08,-3.43
-9.5,0.99,-0.64,-6.86,-6.86,-6.86
-9.3,0.9,-0.5,-10.36,-10.64,-10.64
-9.18,0.73,-0.26,-13.02,-13.02,-13.02
-9.35,0.84,-0.18,-12.81,-12.81,-12.74
-9.43,0.87,-0.14,-12.53,-12.53,-12.53
-9.5,0.96,-0.12,-12.39,-12.39,-12.39
-9.66,1.03,-0.1,-11.9,-11.55,-11.55
-9.76,1.02,-0.06,-10.5,-10.15,-10.15
-9.79,0.95,-0.07,-8.89,-8.33,-8.33
-9.76,0.88,-0.04,-6.37,-5.67,-5.67
-9.69,0.76,-0.11,-3.15,-3.15,-2.66
-9.63,0.78,-0.16,0.42,0.42,0.42
-9.7,0.79,-0.18,1.75,1.96,1.96
-9.87,0.79,-0.16,2.52,2.73,2.73
-9.99,0.71,-0.09,3.36,3.36,3.57
-9.94,0.63,-0.09,4.2,4.2,4.2
-9.84,0.58,-0.18,4.83,4.97,4.97
-9.76,0.53,-0.21,4.9,5.04,5.04
-9.74,0.52,-0.23,4.62,4.62,4.62
-9.79,0.42,-0.17,3.99,3.99,3.99
-9.88,0.35,-0.14,3.43,3.43,3.43
-9.95,0.29,-0.12,2.73,2.73,2.73
-9.99,0.27,-0.12,2.03,2.03,2.03
-10.08,0.26,-0.12,1.47,1.33,1.33
-10.26,0.33,-0.09,0.98,0.98,0.84
-10.26,0.4,-0.01,0.35,0.21,0.21
-10.12,0.37,0,-0.42,-0.49,-0.49
-10,0.44,0.01,-0.7,-0.7,-0.77
-9.84,0.45,0.04,-0.77,-0.77,-0.63
-9.66,0.46,0.18,-1.12,-1.12,-1.12
-9.52,0.44,0.23,-1.4,-1.4,-1.4
-9.37,0.42,0.35,-0.91,-0.91,-0.91
-9.34,0.37,0.4,0.21,0.21,0.21
-9.49,0.39,0.44,1.26,1.26,1.26
-9.66,0.36,0.48,1.89,1.89,1.89
-9.76,0.35,0.43,2.73,2.73,2.73
-10.05,0.41,0.42,3.29,3.29,3.29
-10.22,0.45,0.38,4.62,4.62,4.76
-10.28,0.44,0.4,5.67,5.67,5.67
-10.2,0.41,0.36,5.81,5.74,5.74
-10.11,0.44,0.35,5.39,5.18,4.97
-10.15,0.46,0.38,4.2,3.99,3.64
-10.07,0.5,0.45,2.52,2.52,2.24
-9.78,0.48,0.43,-0.07,-0.07,-0.07
-9.42,0.43,0.44,-1.82,-1.82,-1.89
-9.01,0.3,0.4,-3.43,-3.43,-3.5
-9.06,0.26,0.35,-2.8,-2.8,-2.8
-9.21,0.19,0.33,-1.54,-1.54,-1.54
-9.58,0.11,0.33,-0.21,-0.14,-0.14
-10.06,0.19,0.26,1.68,1.68,1.96
-10.54,0.23,0.22,3.29,3.78,3.99
-10.81,0.24,0.18,4.83,5.11,5.11
-11.07,0.25,0.16,5.46,5.46,5.67
-11.17,0.24,0.25,5.6,5.6,5.6
-10.97,0.2,0.38,5.46,5.53,5.53
-10.53,0.12,0.56,5.53,5.53,5.6
-10.12,0.17,0.79,5.25,5.25,5.25
-9.8,0.26,0.94,4.41,4.41,3.92
-9.41,0.25,1.07,2.38,2.38,2.38
-8.98,0.15,1.11,0.42,0.42,0.42
-8.73,0.02,1.12,-0.28,-0.28,-0.35
-8.67,0,1.16,0.7,0.7,0.7
-8.68,0.14,1.1,2.66,2.66,2.66
-8.61,0.24,1.03,4.2,4.2,4.55
-8.62,0.33,1.01,6.02,6.02,6.02
-8.84,0.34,1,8.96,8.96,8.96
-9.28,0.33,1.07,12.11,12.11,13.16
-9.76,0.3,1.1,15.54,15.54,15.54
-10.08,0.31,1.09,17.15,17.15,17.15
-10.3,0.32,1.1,16.1,16.1,15.33
-10.35,0.3,1.04,12.46,12.46,11.34
-10.37,0.22,1.05,7.7,7.7,7.7
-10.3,0.22,1,3.08,3.08,3.08
-10.14,0.36,0.91,-1.33,-1.33,-1.33
-9.93,0.49,0.86,-3.78,-4.2,-4.2
-9.85,0.63,0.83,-6.37,-6.65,-6.65
-9.82,0.58,0.77,-8.47,-8.68,-8.68
-9.85,0.5,0.74,-10.22,-10.22,-10.22
-9.86,0.38,0.66,-9.59,-9.59,-9.59
-9.81,0.26,0.59,-8.4,-8.4,-8.12
-9.82,0.18,0.55,-6.58,-6.58,-6.16
-9.87,-0.07,0.61,-4.62,-4.62,-4.62
-9.91,-0.25,0.63,-3.43,-3.43,-3.43
-9.82,-0.41,0.64,-2.38,-2.45,-2.45
-9.83,-0.38,0.54,-1.05,-1.05,-0.84
-9.78,-0.27,0.47,0.07,0.07,0.07
-9.62,-0.12,0.35,1.47,1.68,1.68
-9.68,0.24,0.2,7.14,7.14,7.63
-9.82,0.46,0.31,10.57,10.57,10.57
-10.15,0.96,0.65,14.14,14.07,14.07
-10.31,1.09,0.88,13.58,13.58,13.37
-10.41,1.11,1.08,11.69,11.69,11.41
-10.39,1.06,1.13,9.24,9.24,9.24
-10.2,0.85,1.15,5.18,5.18,5.18
-9.93,0.56,1.11,-0.84,-1.4,-1.4
-9.63,0.23,1.01,-5.25,-5.74,-5.74
-9.38,0.02,0.93,-8.19,-8.47,-8.47
-9.1,-0.21,0.76,-9.45,-9.59,-9.59
-8.96,-0.4,0.37,-5.74,-5.74,-4.76
-10.53,-0.04,0.6,6.3,6.3,6.37
-10.72,0.16,0.72,6.3,6.3,6.3
-10.91,0.25,0.94,1.96,1.61,1.61
-10.91,0.12,1.04,-1.82,-1.82,-2.17
-10.79,-0.05,1.12,-3.99,-4.62,-4.9
-10.53,-0.17,1.02,-6.72,-6.72,-6.86
-10.12,-0.15,0.94,-7.35,-7.35,-7.35
-9.68,-0.06,0.81,-7.14,-6.93,-6.65
-9.23,0.01,0.84,-5.6,-5.18,-5.18
-8.98,0.13,0.89,-3.08,-3.08,-2.38
-8.92,0.24,1.05,0.21,0.21,0.21
-8.93,0.22,1.23,3.57,4.2,4.2
-9.3,0.17,1.41,6.09,6.09,6.72
-9.78,0.22,1.63,8.26,8.26,8.26
-10.05,0.33,1.7,10.15,10.15,10.43
-10.16,0.47,1.72,11.41,11.41,11.62
-10.37,0.58,1.78,11.9,11.9,11.9
-10.73,0.7,1.82,10.57,10.57,10.57
-10.94,0.66,1.73,6.93,6.93,6.93
-10.98,0.58,1.61,0.56,0.56,0.56
-10.85,0.6,1.3,-4.13,-4.13,-4.13
-10.4,0.77,1.01,-6.72,-7.56,-7.56
-9.8,0.82,1.16,-11.48,-11.48,-11.48
-9.16,0.7,1.5,-19.04,-19.04,-19.04
-8.22,0.5,1.69,-24.36,-24.36,-24.36
-7.67,0,1.87,-29.4,-29.4,-29.82
-7.59,-0.37,2.21,-31.29,-31.29,-31.29
-8.01,-0.53,2.71,-28.56,-28.56,-28.56
-8.49,-0.43,2.92,-25.27,-24.64,-24.64
-8.99,-0.06,3.01,-16.8,-16.8,-15.68
-9.84,0.41,2.95,-8.75,-8.75,-7.56
-10.66,0.8,2.79,1.05,1.05,1.05
-11.05,0.82,2.47,8.47,9.94,9.94
-11,0.38,1.8,14.7,14.7,16.17
-11.02,0.22,1.36,20.58,20.58,20.93
-10.87,0.23,1.14,24.43,24.78,24.78
-11.07,0.37,1.16,25.13,25.13,25.06
-11.35,0.68,1.11,22.68,22.68,22.26
-11.27,0.98,0.9,18.13,16.73,16.73
-10.95,1.31,0.58,12.81,12.81,11.41
-10.51,1.55,0.32,6.72,6.72,4.97
-10.07,1.58,0.34,-0.35,-0.35,-0.35
-9.63,1.62,0.72,-10.57,-10.57,-10.57
-9.16,1.66,0.94,-17.71,-19.04,-19.04
-8.54,1.65,0.96,-29.89,-29.89,-30.87
-8.18,1.49,1.71,-41.23,-41.72,-41.72
-8.21,1.58,1.95,-45.64,-45.64,-46.06
-8.15,1.46,2.27,-48.79,-48.79,-48.93
-8.1,1.31,2.62,-49.42,-49.42,-49.35
-8.27,0.69,3.55,-34.37,-34.37,-34.37
-8.35,0.63,3.76,-22.19,-22.19,-22.19
-8.53,0.87,3.79,-12.39,-12.39,-12.39
-8.6,1.08,3.81,-1.96,-1.96,-1.96
-8.81,1.32,3.82,7.42,8.33,8.33
-9.01,1.67,4.02,12.39,12.88,12.88
-9.06,1.96,3.87,16.73,16.73,16.73
-9.18,2.21,3.68,17.78,17.64,17.64
-9.51,2.66,3.48,16.1,15.61,15.61
-9.65,2.88,3.33,10.22,9.17,9.17
-9.6,2.76,3.07,-1.33,-1.33,-2.45
-9.55,1.26,3.11,-8.61,-8.61,-9.45
-9.27,1.99,3.17,-15.05,-16.38,-16.38
-8.84,1.47,3.28,-20.09,-20.09,-20.58
-8.42,1.1,3.37,-23.17,-23.52,-23.52
-8.12,0.83,3.35,-22.82,-22.82,-22.82
-7.94,0.68,3.3,-18.76,-18.76,-18.76
-7.71,0.48,3.24,-12.74,-12.74,-12.74
-7.66,0.49,3.25,-5.74,-5.74,-5.74
-7.78,0.55,3.36,5.74,5.74,5.74
-8.01,0.65,3.42,13.86,13.86,13.86
-8.38,0.82,3.37,23.03,24.01,24.01
-8.84,1.1,3.36,28.35,30.59,30.59
-9.3,1.51,3.33,34.02,34.02,34.02
-9.71,1.92,3.25,35.91,35.84,35.84
-10,2.29,3.17,34.65,33.32,33.32
-10.27,2.41,3.07,30.1,30.1,30.1
-10.51,2.53,3.24,23.24,23.24,23.24
-10.41,2.53,3.32,17.78,17.78,17.78
-10.16,2.54,3.59,10.64,10.64,10.64
-9.65,2.32,3.84,5.74,5.04,5.04
-9.27,1.99,3.93,-1.75,-2.24,-2.24
-8.67,1.64,3.83,-4.34,-4.34,-4.34
-8.17,1.25,3.73,-3.01,-3.01,-3.01
-7.64,1.03,3.68,-0.35,0.14,0.14
-7.39,0.87,3.47,5.32,5.32,6.02
-7.58,0.88,3.37,11.13,11.13,11.9
-8.14,0.97,3.31,17.01,17.01,17.78
-8.74,1.09,2.97,25.9,25.9,25.9
-9.26,1.21,2.78,30.87,32.06,32.06
-9.91,1.23,2.32,35.7,35.7,36.12
-10.43,1.08,2.09,37.52,37.52,37.45
-10.76,0.93,1.59,36.54,36.54,36.54
-11.22,0.87,1.39,34.86,34.09,34.09
-11.58,1.03,1.25,30.24,29.54,29.54
-11.88,1.38,1.18,21.91,21.91,20.86
-12.08,1.66,0.96,12.74,12.74,11.55
-11.35,1.61,0.59,-13.09,-13.09,-13.09
-10.96,1.5,0.65,-19.25,-20.86,-20.86
-10.57,1.33,0.71,-24.43,-25.13,-26.25
-10.14,1.17,0.98,-30.24,-30.24,-30.24
-9.6,0.91,1.25,-33.67,-33.67,-33.67
-9.13,0.81,1.56,-33.88,-33.88,-33.74
-8.63,0.66,2.04,-31.08,-31.08,-30.59
-8.05,0.59,2.32,-27.86,-26.6,-26.6
-7.71,0.46,2.66,-21.28,-20.44,-20.44
-7.74,0.55,3.13,-10.36,-10.36,-9.1
-7.77,0.6,3.41,-3.22,-0.91,0.28
-7.7,0.52,3.6,5.74,5.74,8.82
-7.76,0.59,3.89,13.44,13.44,15.89
-8,0.78,4.15,19.6,19.6,21.42
-8.59,1.36,4.89,24.29,24.29,24.29
-8.94,1.53,5.11,22.47,22.47,22.47
-9.2,1.63,5.24,18.27,17.78,17.78
-9.39,1.9,5.17,14.14,11.69,11.69
-9.42,2.24,5.03,4.62,4.62,4.62
-9.38,2.41,4.71,-5.6,-6.72,-6.72
-9.18,2.34,4.58,-12.04,-15.05,-15.05
-8.83,2.01,4.28,-20.02,-20.02,-20.02
-8.65,1.73,4.12,-23.52,-23.52,-23.52
-8.54,1.48,3.99,-24.43,-24.43,-24.43
-8.46,1.28,3.89,-23.24,-23.24,-23.24
-8.34,1.05,3.77,-21.07,-20.72,-20.72
-8.2,0.87,3.62,-17.22,-16.87,-15.61
-8.15,0.65,3.57,-12.67,-12.11,-12.11
-8.37,0.41,3.59,-6.79,-6.79,-6.02
-8.68,0.3,3.62,-1.82,-1.12,-0.56
-8.93,0.25,3.61,3.5,4.2,5.39
-9.34,0.41,3.74,8.75,9.24,9.24
-9.63,0.48,3.76,13.44,13.86,13.86
-9.63,0.26,3.46,16.24,16.59,16.59
-9.6,0.16,3.16,17.92,17.99,17.99
-9.65,0.05,2.8,20.16,20.37,20.37
-9.64,0.03,2.68,22.33,22.54,22.54
-9.57,0.08,2.53,24.43,24.78,24.78
-9.55,0.2,2.16,26.46,26.46,26.46
-9.92,0.45,1.89,25.48,25.48,25.2
-10.21,0.62,1.62,21,21,21
-10,0.34,1.42,17.22,17.22,17.22
-9.76,0.08,1.17,14.21,14.21,13.65
-9.6,0.01,1.05,12.95,12.95,12.95
-9.45,-0.03,0.81,13.44,13.44,13.44
-9.76,-0.09,0.37,13.37,13.37,13.37
-10.02,-0.01,0.38,12.32,11.9,11.9
-10.24,0.14,0.53,10.43,10.43,9.73
-10.27,0.02,0.37,6.65,6.65,6.65
-10.03,-0.27,0.01,3.22,3.22,3.22
-9.77,-0.43,-0.13,1.47,1.12,1.12
-9.61,-0.5,-0.15,0.35,0.35,0.35
-9.41,-0.48,-0.29,0.42,0.42,0.42
-9.42,-0.49,-0.61,1.05,1.05,1.05
-9.4,-0.48,-0.86,1.47,1.47,1.61
-9.53,-0.44,-0.96,3.15,3.15,3.15
-9.7,-0.39,-0.91,6.93,7.56,7.56
-9.84,-0.42,-0.89,9.73,10.5,10.85
-10.06,-0.35,-0.81,12.53,13.23,13.51
-10.27,-0.13,-0.69,15.26,15.26,16.59
-10.41,0.1,-0.59,18.48,18.48,18.83
-10.44,0.16,-0.81,21.63,21.63,21.77
-10.43,0.13,-0.89,22.26,22.26,22.26
-10.6,0.13,-0.88,21.63,21.63,21.49
-10.67,0.18,-0.99,19.53,19.53,19.25
-10.71,0.23,-1.17,16.8,16.8,16.8
-11.26,0.24,-1.51,12.88,12.39,12.39
-11.12,0.39,-2.07,-0.91,-0.91,-2.24
-10.33,-0.16,-2.12,-10.57,-10.57,-10.57
-9.62,-0.6,-1.82,-22.82,-22.82,-22.82
-8.62,-1.05,-1.67,-28,-29.12,-29.12
-7.46,-1.37,-1.43,-32.2,-32.2,-32.2
-6.82,-1.15,-0.71,-38.43,-38.43,-38.43
-7.39,-0.69,0.11,-41.58,-41.72,-41.72
-8.13,-0.41,0.62,-41.58,-40.6,-40.6
-9.41,0.26,1.47,-35.56,-35.56,-35.56
-13.42,2.72,3.47,-9.8,-8.89,-8.89
-15.16,4.3,4.41,-1.26,-0.77,-0.77
-16.24,4.75,4.76,0.91,0.84,0.84
-15.97,4.42,4.78,0.07,0.07,-0.07
-14.8,3.58,4.71,-0.28,-0.28,-0.28
-13.52,2.36,4.79,-0.63,-0.91,-0.91
-12.19,1.01,4.79,-1.33,-1.33,-1.4
-12.2,1.07,5.4,-3.15,-3.15,-3.15
-11.51,0.67,5.04,-6.72,-6.72,-6.72
-10.66,0.23,4.3,-7.49,-7.49,-7.49
-10.26,0.52,4.26,-5.95,-5.39,-5.39
-10.2,1.07,4.28,-5.25,-5.25,-5.39
-10.07,0.66,4.36,-10.15,-10.15,-10.15
-10.07,0,4.05,-10.92,-10.57,-10.57
-9.97,-0.23,3.9,-4.76,-4.76,-3.64
-9.15,0.07,3.48,1.96,3.92,3.92
-7.56,-0.2,2.79,8.68,9.31,9.31
-6.99,-0.41,1.93,15.61,15.61,15.61
-6.69,-0.39,2.05,25.48,26.53,26.53
-6.62,0.19,2.36,32.2,32.2,32.2
-7.15,0.48,1.85,33.04,32.9,32.27
-7.55,0.5,0.81,29.82,29.82,29.54
-7.42,0.77,0.47,27.09,27.09,27.09
-7.2,1.51,0.76,23.31,23.31,23.31
-7.17,1.83,0.34,18.06,15.82,15.82
-7.03,1.33,-0.99,8.54,8.54,6.3
-6.97,1.23,-1.8,-0.14,-0.14,-0.14
-7.97,2.54,-1.46,-5.74,-8.26,-8.26
-7.92,2.46,-2.19,-12.74,-12.74,-12.74
-8.33,2.82,-1.48,-13.3,-13.3,-13.3
-8.34,3.04,-2.12,-13.65,-13.65,-13.93
-7.94,3.06,-2.81,-12.74,-12.74,-12.39
-7.74,3.08,-2.62,-7.98,-7.98,-7.98
-7.71,2.66,-2.98,-7.56,-7.56,-7.56
-7.85,2.9,-2.87,-5.67,-5.67,-5.67
-7.98,3.41,-2.81,-2.73,-2.17,-2.17
-7.89,3.47,-2.89,-0.77,-0.77,-0.77
-7.86,3.3,-2.7,-4.69,-4.69,-4.69
-8.42,3.42,-2.5,-5.6,-5.6,-5.6
-8.42,3.58,-2.5,0.49,1.4,1.4
-7.99,3.56,-2.49,5.81,6.23,6.23
-8.12,3.7,-2,6.44,6.44,6.37
-8.96,4.22,-1.62,6.72,6.72,7.63
-9.01,3.94,-1.7,10.92,10.92,10.92
-8.53,3.46,-2.09,13.93,13.93,13.93
-8.93,3.7,-2.04,14.07,14.14,14.14
-9.19,4.33,-1.82,14.14,14.14,13.72
-8.85,4.02,-2.19,11.27,11.27,11.27
-8.1,3.17,-2.4,4.06,4.06,1.75
-7.76,2,-1.91,-7.28,-8.47,-8.47
-8.75,2.03,-1.61,-14.42,-14.63,-14.63
-8.66,2.29,-1.94,-10.99,-10.99,-10.36
-7.83,2.14,-2.1,-7.91,-7.42,-7.49
-7.48,2.14,-1.61,-8.47,-8.47,-10.36
-7.85,1.88,-0.98,-14.14,-14.14,-16.03
-8.79,1.82,-0.94,-15.4,-15.4,-15.4
-8.71,1.73,-0.6,-7.84,-7,-7
-8.53,1.62,-0.17,-2.66,-2.66,-2.66
-8.48,1.52,-0.25,0.21,0.21,0.49
-8.71,1.86,-0.6,5.6,5.6,5.6
-8.89,2.68,-0.23,10.64,12.11,12.11
-8.63,2.94,0.19,15.26,15.89,15.89
-8.08,1.92,0.02,18.06,18.55,18.55
-8.06,1.21,0.68,24.64,24.64,25.48
-8.1,1.24,1.73,30.87,30.87,31.57
-7.82,1.77,2.2,36.47,36.47,36.89
-7.25,1.82,0.83,34.37,32.55,32.55
-8.32,2.18,2.04,26.39,24.01,24.01
-8.96,2.75,2.81,17.43,17.43,15.47
-8.42,2.36,2.34,11.27,11.27,11.27
-8.13,2.01,1.94,6.3,6.3,4.55
-8.96,2.03,2.58,-1.61,-1.61,-1.61
-10.2,3.25,4.34,-13.79,-13.79,-13.79
-10.03,2.93,3.96,-19.53,-19.53,-20.02
-8.88,1.97,2.76,-19.6,-19.6,-19.6
-9.09,1.2,3,-16.94,-15.96,-15.96
-9.97,1.03,4.07,-13.23,-13.23,-13.23
-10.26,0.51,4.03,-7.14,-7.14,-7.14
-9.84,0.22,3.84,0.98,0.98,0.98
-10.02,0.22,4.05,6.72,6.72,6.72
-10.87,0.67,5.03,12.46,12.46,12.46
-11.72,0.67,5.69,15.19,15.19,15.75
-11.28,-0.22,5.45,21.63,21.63,22.89
-10.6,-0.32,5.1,34.58,34.58,34.58
-10.76,0.5,5.48,40.67,40.67,40.67
-11.27,1.85,5.72,40.46,40.46,39.76
-11.31,2.9,5.48,35.91,35.91,35.91
-11.38,3.43,5.13,30.31,29.4,29.4
-11.72,4.25,5.02,24.15,19.88,19.88
-11.62,4.64,4.91,10.99,9.03,5.18
-10.92,4.55,4.38,-7.28,-8.82,-8.82
-10.38,4.29,3.62,-18.9,-21.49,-21.49
-9.92,3.78,2.88,-28.28,-28.28,-30.38
-9.67,2.78,2.36,-34.72,-34.72,-35.21
-9.96,2.31,2.29,-36.19,-36.19,-36.19
-10.17,1.6,1.79,-34.58,-34.58,-34.58
-10.39,1.25,1.32,-31.08,-30.45,-30.45
-11.11,1.43,1.2,-27.44,-27.09,-27.09
-12.04,1.8,1.6,-26.74,-26.74,-27.23
-12.78,2.11,1.62,-31.01,-31.01,-31.92
-13.15,2.25,1.48,-42.21,-42.21,-42.21
-13.31,2.3,1.49,-49.84,-49.84,-49.84
-13.17,2.31,1.78,-56.7,-56.7,-56.7
-12.67,2.36,1.99,-61.32,-61.88,-63
-11.87,2.2,2.03,-66.92,-66.92,-67.27
-10.53,1.94,2.08,-67.27,-67.27,-67.27
-9.08,1.61,2.13,-63.07,-63.07,-63.07
-8.27,1.29,2.57,-54.6,-54.6,-54.6
-7.37,0.89,2.89,-48.79,-46.62,-46.62
-6.01,0.24,3.08,-37.87,-37.87,-34.58
-4.06,-0.39,3.19,-21.35,-21.35,-21.35
-3.03,-0.66,3.42,-6.93,-6.93,-6.93
-3.01,-0.49,4.32,6.79,6.79,6.79
-3.16,-0.31,4.58,15.26,15.26,15.26
-3.54,0.18,4.96,20.93,20.93,20.93
-4.08,0.88,5.36,24.43,24.5,24.5
-4.72,1.5,5.36,24.64,24.57,24.57
-5.25,1.88,5.25,24.43,24.36,24.78
-5.75,2.07,5.17,26.18,26.6,26.6
-6.26,2.46,4.89,31.64,32.34,32.34
-6.73,2.44,4.52,35.98,38.36,38.36
-6.86,2.12,4.14,42.56,43.33,45.22
-7.47,2.02,3.98,50.12,51.1,51.1
-8.37,2.69,4.16,57.89,58.73,60.62
-8.88,3.46,3.77,65.1,65.94,65.94
-8.82,3.87,2.78,70.98,70.98,71.33
-8.42,3.8,1.94,71.4,71.4,71.19
-8.73,3.95,1.44,69.09,69.09,68.46
-9.84,4.4,0.34,61.81,61.04,61.04
-10.71,5.25,-0.21,54.46,54.46,53.48
-10.76,5.56,-0.72,43.82,43.82,43.82
-10.47,5.62,-0.89,37.45,37.45,37.45
-10.69,5.36,-0.95,26.39,26.39,26.39
-11.36,5.3,-0.68,11.55,11.55,11.55
-11.83,4.81,-0.2,-6.09,-6.09,-6.09
-11.49,4.02,0.08,-17.08,-17.08,-17.08
-11,3.42,0.13,-25.9,-25.9,-25.9
-10.9,3.02,0.31,-30.45,-31.78,-31.78
-10.12,1.46,1.56,-35.14,-34.93,-34.93
-9.52,1.4,1.86,-30.66,-30.66,-29.96
-9.39,1.21,2,-25.97,-25.97,-25.27
-9.98,1.56,2.37,-22.19,-22.19,-21.84
-10.36,1.94,2.5,-20.51,-20.51,-20.72
-10.45,2.13,2.52,-24.29,-24.29,-24.29
-10.07,2.04,2.4,-30.17,-30.17,-30.17
-9.64,1.59,2.12,-34.79,-34.79,-34.79
-9.4,1.1,2.09,-37.87,-37.87,-37.87
-9.29,0.93,1.89,-36.96,-36.96,-36.96
-9.3,0.98,1.76,-35.35,-35,-35
-9.23,1.15,1.64,-33.88,-33.88,-33.53
-9.08,1.18,1.46,-32.2,-32.2,-31.64
-9.24,1.17,1.3,-29.12,-29.12,-27.93
-9.51,1.3,1.27,-23.8,-23.8,-23.8
-9.59,1.71,1.12,-16.52,-16.52,-16.52
-9.22,1.68,0.97,-11.34,-11.34,-11.34
-8.93,1.65,0.71,-7.56,-7.56,-7
-9.19,1.64,0.73,-0.98,-0.98,-0.98
-9.71,1.72,0.78,3.99,5.6,5.6
-9.96,1.86,0.67,10.29,10.29,11.69
-10.08,2.12,0.51,15.19,16.03,16.03
-10.28,2.5,0.39,17.92,17.92,18.13
-10.32,2.69,0.4,17.08,17.08,16.8
-10.04,3.01,0.65,5.32,3.85,3.22
-10.05,2.95,0.89,-2.94,-2.94,-3.85
-9.81,2.82,0.85,-11.76,-11.76,-13.09
-9.38,2.69,0.69,-19.74,-19.74,-20.72
-9.08,2.53,0.48,-26.46,-27.65,-27.65
-9.27,1.8,0.64,-33.67,-33.67,-33.67
-9.47,1.52,0.77,-36.05,-36.05,-36.05
-9.6,1.31,0.85,-39.06,-39.06,-39.06
-9.78,1.14,0.88,-40.18,-40.18,-40.18
-9.94,0.93,0.98,-39.55,-39.55,-39.55
-10.29,0.58,1.11,-35.7,-35.7,-35.42
-10.23,0.48,1.07,-32.55,-31.57,-31.57
-10.26,0.41,1.17,-28.28,-28.28,-27.16
-10.17,0.39,1.4,-24.08,-24.08,-24.08
-9.49,-0.35,1.85,-8.12,-7.63,-7.63
-9.24,-0.3,1.99,-0.84,-0.84,-0.42
-8.94,-0.45,1.88,2.73,3.78,3.78
-8.83,-0.58,1.88,11.97,11.97,11.97
-8.99,-0.45,1.86,14.56,14.56,14.56
-9.26,-0.25,1.84,15.19,15.19,15.19
-9.58,-0.24,1.8,15.12,15.26,15.12
-10.04,-0.09,1.81,15.05,15.05,15.05
-10.32,0.25,1.7,14.49,14.28,14.28
-10.46,0.42,1.63,13.3,13.3,13.3
-10.46,0.61,1.54,10.71,10.71,10.71
-10.26,0.63,1.32,8.68,8.68,8.68
-9.92,0.6,1.11,7.21,7.21,7.21
-9.47,0.98,0.56,7.28,7.28,7.28
-9.39,1.27,0.49,7.56,7.49,7.49
-9.3,1.48,0.4,6.51,5.67,5.67
-9.6,1.65,0.33,3.92,3.78,3.78
-10.19,1.89,0.27,2.73,2.66,2.66
-10.45,2.09,0.15,0.21,0.21,-0.07
-10.52,2.21,0.08,-3.64,-3.64,-3.64
-10.39,2.07,-0.03,-8.89,-8.89,-8.89
-10.31,1.88,-0.04,-10.85,-11.13,-11.13
-10.26,1.72,-0.02,-11.76,-11.76,-11.76
-10.14,1.5,0.03,-11.69,-11.69,-11.69
-10.04,1.33,0.11,-11.2,-10.78,-10.78
-9.85,1.03,0.24,-9.66,-9.1,-9.1
-9.7,0.77,0.41,-6.72,-6.72,-6.37
-9.54,0.67,0.51,-2.17,-2.17,-2.17
-9.41,0.64,0.58,1.05,2.31,2.31
-9.38,0.83,0.71,5.67,5.67,6.16
-9.48,0.91,0.88,7.98,7.98,8.33
-9.62,0.99,1.03,10.78,10.78,10.78
-9.87,1.19,1.08,14.14,14.14,14.14
-10.04,1.5,1.08,16.17,16.45,16.45
-10.05,1.71,1.14,17.01,17.01,17.01
-9.95,1.87,1.14,16.24,16.1,16.1
-9.75,1.85,1.15,14.77,14.77,14.28
-9.51,1.74,1.12,13.3,13.3,13.02
-9.42,1.68,1.13,12.74,12.74,12.74
-9.36,1.75,1.12,12.46,12.46,12.39
-9.32,1.86,1.16,10.64,10.64,10.64
-9.44,2.01,1.17,8.68,8.05,8.05
-9.52,2.03,1.27,6.3,6.3,6.3
-9.49,1.85,1.2,4.13,4.13,4.13
-9.4,1.75,1.09,2.8,2.8,2.8
-9.13,1.64,0.9,1.82,1.82,1.82
-9.11,1.56,0.73,2.59,2.8,2.8
-9.38,1.58,0.71,4.62,5.11,5.11
-9.63,1.56,0.68,8.26,8.26,8.54
-9.92,1.58,0.68,9.59,9.94,10.01
-10.14,1.57,0.68,9.66,9.66,9.66
-10.07,1.41,0.72,7.77,6.58,6.58
-10,1.21,0.76,4.9,4.55,3.92
-9.84,1.03,0.76,2.59,2.59,2.52
-9.68,0.95,0.69,3.08,3.08,3.08
-9.6,1.01,0.65,4.83,5.46,5.46
-9.62,1.11,0.71,7.98,7.98,8.33
-9.64,1.12,0.81,9.8,9.8,9.8
-9.77,1.13,0.83,11.13,11.13,11.13
-9.78,1.15,0.87,13.58,13.58,13.58
-9.74,1.25,0.89,15.68,16.31,16.31
-9.68,1.56,0.86,17.85,17.85,17.85
-9.81,1.84,0.92,17.29,17.29,17.29
-9.91,1.95,0.93,13.58,13.58,13.58
-9.86,1.85,0.87,10.5,10.5,10.5
-9.66,1.69,0.78,8.33,8.33,8.33
-9.43,1.67,0.72,7.56,7.14,7.14
-9.27,1.69,0.74,6.23,6.23,5.95
-9.25,1.67,0.82,4.83,4.69,4.69
-9.42,1.55,0.89,3.5,3.5,3.29
-9.57,1.52,0.85,1.33,1.33,1.33
-9.56,1.47,0.73,-0.84,-0.84,-0.84
-9.49,1.53,0.63,-3.92,-3.92,-3.92
-9.48,1.65,0.7,-8.19,-8.61,-8.61
-9.51,1.74,0.76,-11.13,-11.48,-12.39
-9.59,1.66,0.87,-14.77,-14.77,-14.98
-9.77,1.56,0.89,-15.82,-15.82,-15.82
-9.91,1.55,0.91,-15.47,-15.47,-15.47
-9.9,1.5,0.85,-14.21,-14.14,-14.14
-9.9,1.56,0.83,-13.09,-13.09,-13.09
-10.01,1.5,0.85,-11.97,-11.97,-11.69
-10.16,1.36,0.99,-9.03,-9.03,-8.82
-10.2,1.26,1.01,-6.3,-6.3,-6.3
-10.16,1.26,0.97,-2.31,-2.31,-2.31
-10.11,1.33,0.93,-0.7,-0.21,-0.21
-10.05,1.37,0.91,0.84,0.84,0.84
-10,1.38,0.87,1.96,1.96,1.96
-9.87,1.3,0.91,3.36,3.36,3.36
-9.65,1.2,0.86,3.99,3.99,3.99
-9.47,1.2,0.83,4.83,4.83,4.83
-9.18,1.28,0.73,4.9,4.9,4.9
-8.93,1.37,0.67,4.69,4.69,4.69
-8.84,1.52,0.74,4.41,4.41,4.41
-8.92,1.56,0.78,4.97,4.97,4.97
-9.25,1.66,0.8,5.74,5.74,5.95
-9.6,1.76,0.77,4.69,4.41,4.41
-9.59,1.79,0.77,2.17,1.82,1.82
-9.64,1.81,0.84,-0.77,-0.77,-0.98
-9.76,1.79,0.92,-2.59,-2.59,-2.66
-9.77,1.67,0.91,-3.5,-3.5,-3.57
-9.76,1.64,0.87,-3.01,-3.01,-3.01
-9.66,1.57,0.78,-1.54,-1.54,-1.26
-9.64,1.61,0.78,0.42,0.42,0.7
-9.7,1.57,0.77,2.73,2.73,2.73
-9.71,1.45,0.73,4.27,4.48,4.48
-9.69,1.43,0.68,6.44,6.44,6.65
-9.64,1.4,0.63,7.98,7.98,8.12
-9.64,1.4,0.66,9.03,9.24,9.24
-9.73,1.42,0.74,9.87,9.87,10.22
-9.85,1.45,0.83,10.57,10.57,10.57
-9.85,1.55,0.85,10.43,10.43,10.08
-9.74,1.6,0.83,8.54,8.54,8.54
-9.77,1.56,0.82,6.16,5.81,5.81
-9.82,1.57,0.84,4.69,4.41,4.2
-9.82,1.5,0.87,3.15,3.15,2.52
-9.75,1.4,0.88,0.98,0.84,0.84
-9.69,1.29,0.87,-1.68,-1.68,-1.68
-9.66,1.17,0.87,-2.59,-2.66,-2.66
-9.71,1.15,0.9,-2.66,-2.73,-2.73
-9.69,1.17,0.91,-2.66,-2.66,-2.66
-9.63,1.28,0.85,-2.52,-2.59,-2.59
-9.67,1.45,0.82,-2.38,-2.38,-2.38
-9.75,1.55,0.79,-2.8,-2.8,-2.8
-9.89,1.66,0.75,-4.48,-4.48,-4.48
-9.92,1.63,0.73,-5.6,-5.81,-5.81
-9.91,1.58,0.72,-6.86,-6.86,-6.86
-9.82,1.53,0.72,-6.72,-6.72,-6.72
-9.67,1.46,0.76,-6.3,-6.3,-6.3
-9.59,1.34,0.75,-5.53,-5.53,-5.53
-9.55,1.25,0.77,-4.55,-4.06,-4.06
-9.57,1.28,0.76,-2.38,-2.38,-2.38
-9.54,1.26,0.77,0.77,0.77,0.77
-9.71,1.31,0.83,3.01,3.01,3.01
-9.81,1.43,0.91,4.13,4.13,4.13
-9.72,1.42,0.93,3.64,3.29,3.29
-9.58,1.27,0.94,2.1,2.1,1.61
-9.46,1.19,0.88,0.63,0.63,0.63
-9.41,1.32,0.72,0.84,0.84,0.84
-9.42,1.44,0.66,1.61,1.68,1.68
-9.53,1.66,0.67,2.38,2.52,2.52
-9.71,1.87,0.79,2.66,2.66,2.66
-9.85,1.89,0.9,2.38,2.38,2.24
-9.91,1.78,0.89,1.26,0.91,0.91
-9.96,1.76,0.9,-0.07,-0.07,-0.42
-9.89,1.65,0.85,-1.26,-1.26,-1.26
-9.75,1.58,0.84,-2.45,-2.45,-2.45
-9.75,1.54,0.8,-2.87,-2.87,-2.87
-9.85,1.51,0.84,-2.87,-2.8,-2.8
-9.85,1.32,0.81,-2.52,-2.52,-2.52
-9.82,1.23,0.69,-1.89,-1.89,-1.89
-9.77,1.14,0.64,-1.75,-1.75,-1.75
-9.74,1.06,0.66,-2.03,-2.17,-2.24
-9.6,0.97,0.62,-2.31,-2.31,-2.31
-9.06,1,0.42,-0.21,0.42,0.7
-9.06,1.23,0.4,2.38,2.38,3.57
-9.23,1.53,0.45,5.18,5.18,5.53
-9.47,1.73,0.53,6.65,6.65,6.65
-9.75,1.77,0.63,6.09,6.09,6.09
-9.88,1.78,0.62,4.76,4.76,4.76
-10.02,1.91,0.6,4.34,4.27,4.27
-9.98,2.05,0.43,3.64,3.64,3.36
-9.96,2.07,0.37,2.38,2.38,2.38
-9.92,1.56,0.26,-0.49,-0.49,-0.49
-9.92,1.48,0.23,-0.14,-0.14,-0.14
-9.53,1.67,0.23,-2.03,-2.03,-2.03
-10.03,1.93,0.33,-5.53,-5.53,-5.53
-9.87,1.83,0.45,-7.91,-7.91,-8.19
-9.77,1.78,0.5,-9.52,-9.52,-9.8
-9.57,1.58,0.45,-12.18,-12.18,-12.18
-9.45,1.53,0.44,-12.81,-12.81,-12.81
-9.38,1.41,0.44,-12.95,-12.95,-12.95
-9.3,1.29,0.46,-12.11,-12.11,-12.11
-9.34,1.2,0.51,-10.15,-10.15,-10.15
-9.42,1.13,0.62,-6.93,-6.72,-6.72
-9.59,1.17,0.65,-4.41,-3.92,-3.92
-9.74,1.23,0.66,-1.47,-1.47,-1.4
-10.1,1.39,0.63,1.47,1.47,1.75
-10.15,1.39,0.51,4.55,4.55,4.55
-10.15,1.45,0.33,6.09,6.51,6.51
-10.3,1.72,0.04,7,7,7
-10.48,1.92,-0.14,6.72,6.51,6.51
-10.58,2.2,-0.32,4.69,4.69,4.48
-10.59,2.34,-0.46,2.73,2.73,2.73
-10.59,2.39,-0.5,0.49,0.21,0.21
-10.62,2.5,-0.49,-1.4,-2.45,-2.45
-10.47,2.54,-0.66,-5.25,-5.25,-5.25
-10.42,2.52,-0.73,-8.4,-8.75,-8.75
-10.44,2.46,-0.71,-12.39,-12.74,-12.74
-10.48,2.42,-0.65,-15.19,-15.54,-15.54
-10.35,2.28,-0.68,-17.92,-18.27,-18.27
-10.33,2.34,-0.63,-19.18,-19.81,-19.81
-10.2,2.46,-0.14,-22.96,-22.89,-22.89
-10.26,2.5,-0.12,-21,-21,-20.72
-10.29,2.5,-0.22,-18.06,-18.06,-17.64
-10.44,2.52,-0.22,-14.84,-14.84,-14.42
-10.72,2.59,-0.06,-12.81,-12.81,-12.81
-10.97,2.65,0.04,-13.79,-13.79,-14.35
-10.94,2.7,-0.13,-15.33,-15.33,-15.33
-10.56,2.66,-0.82,-14.21,-13.93,-13.93
-10.27,2.61,-1,-12.46,-11.69,-11.69
-10.24,2.7,-0.98,-10.57,-10.57,-10.57
-10.16,2.65,-1.35,-9.8,-9.59,-9.59
-9.89,2.61,-1.72,-7.84,-6.23,-6.23
-9.76,2.68,-1.72,-1.61,-1.12,-1.12
-10.06,2.9,-1.31,0.49,0.42,0.42
-10.23,3.04,-1,-2.73,-2.73,-2.73
-9.92,2.99,-0.92,-8.26,-8.26,-8.26
-9.58,3.15,-0.78,-11.9,-12.39,-12.39
-9.32,3.19,-0.56,-16.1,-16.8,-16.8
-9,2.91,-0.38,-21.21,-24.22,-24.22
-8.57,2.52,0.01,-29.54,-29.54,-29.54
-8.1,2.19,0.07,-32.2,-32.2,-32.2
-8.01,1.76,0.31,-31.99,-31.99,-31.85
-8.14,1.58,0.79,-27.79,-27.79,-27.79
-8.03,1.66,0.83,-21.77,-20.51,-20.51
-7.96,2.21,0.79,-9.73,-9.73,-9.73
-8.16,2.66,0.78,-5.18,-5.18,-5.18
-8.73,3.14,0.94,-5.88,-6.86,-6.86
-9.4,3.37,1.23,-10.71,-10.71,-12.25
-10.12,3.5,1.32,-16.94,-16.94,-16.94
-10.18,3.47,1.1,-25.62,-25.62,-25.62
-10.27,3.92,0.64,-30.17,-30.17,-30.87
-10.23,4.08,-0.01,-34.37,-34.37,-34.93
-10.05,3.77,0.28,-40.32,-40.32,-40.32
-10.17,3.71,0.56,-45.99,-45.99,-45.99
-9.25,3.14,0.54,-49.63,-49.63,-49.63
-8.52,2.36,0.42,-51.17,-51.1,-51.1
-8.39,1.86,0.39,-48.65,-48.02,-48.02
-7.65,0.95,0.34,-40.18,-38.99,-38.99
-7.17,0.8,0.24,-31.85,-31.85,-31.85
-7.18,0.8,0.4,-20.93,-20.93,-20.93
-7.33,1.07,0.56,-7.07,-7.07,-7.07
-7.12,1.24,0.79,-0.07,-0.07,-0.07
-7.03,1.8,1.22,9.52,9.52,9.52
-7.04,2,1.5,14.63,14.63,14.63
-6.85,2.43,1.53,17.57,17.57,17.99
-7.17,3.4,0.89,22.05,22.05,22.05
-7.69,4.48,0.96,22.33,22.33,22.33
-7.77,4.36,1.65,17.36,17.36,17.36
-7.73,4.16,1.81,14.35,13.65,13.65
-7.63,3.79,1.98,11.9,11.9,11.48
-7.98,3.96,1.88,11.55,11.55,11.83
-8.01,4.06,2.05,12.88,12.88,12.88
-8.14,3.85,2.66,13.3,13.3,13.37
-8.2,3.89,2.54,13.16,13.23,13.23
-8.09,3.59,2.48,12.18,12.04,12.04
-8.17,3.81,2.28,13.16,13.58,13.58
-8.04,3.93,2.16,14.84,14.77,14.77
-7.87,3.81,1.93,12.81,12.18,10.57
-7.56,3.28,1.92,5.81,5.18,3.64
-7.8,3.32,2.01,1.4,1.4,1.61
-7.73,3.58,1.55,5.04,5.04,5.04
-7.44,3.84,1.47,5.18,5.18,4.34
-7.52,3.79,1.41,-0.35,-0.35,-0.35
-7.69,3.15,1.09,-6.58,-6.58,-6.58
-7.86,2.79,0.86,-5.81,-5.81,-4.55
-7.98,3.01,1.1,4.41,4.41,4.41
-7.96,3.36,1.05,12.74,12.74,13.58
-8.13,3.52,0.5,17.22,17.57,17.57
-8.34,3.2,0.12,21.49,21.49,21.98
-9.11,2.95,0.49,25.27,25.27,25.62
-9.99,3.17,0.61,28.35,28.63,28.63
-10.51,3.26,-0.08,26.81,26.18,26.18
-10.47,3.1,-0.35,19.67,19.67,19.67
-10.44,3.04,0.24,10.92,10.01,10.01
-10.68,3.03,0.58,6.58,6.3,6.3
-10.38,2.5,0.32,5.25,5.25,5.67
-9.96,2.04,-0.16,7,7,7.42
-9.98,2.02,0.27,13.37,13.37,14
-9.83,2.01,0.81,18.34,18.34,18.83
-9.59,1.88,0.97,20.44,20.44,20.44
-9.29,1.54,0.15,22.89,23.24,23.24
-8.92,1.26,-0.09,26.74,26.74,26.74
-8.89,1.23,0.45,31.5,31.85,31.85
-9.17,1.58,1.3,31.99,31.99,31.64
-9.7,1.94,1.25,29.33,28.91,28.91
-9.52,2.06,0.71,26.95,26.95,26.88
-9.35,2.15,0.75,25.9,25.34,24.99
-9.76,2.77,1.29,21.7,21.7,21.7
-10.2,3.37,1.75,12.74,12.74,12.74
-10.18,3.23,1.28,5.04,5.04,5.04
-9.78,2.67,0.84,0.21,0.21,0.21
-9.54,2.68,0.9,-0.91,-0.91,-0.91
-9.76,3.04,1.41,-1.96,-2.17,-2.17
-10.28,2.34,0.89,3.01,3.01,3.01
-9.76,2.23,0.75,10.64,10.64,10.64
-9.3,2.43,0.47,16.45,16.45,16.45
-9.33,2.82,0.46,19.53,19.53,19.53
-10.03,2.85,0.53,18.06,18.06,18.06
-10.6,2.77,0.48,15.68,15.68,15.68
-10.34,2.67,0.37,15.4,15.4,15.4
-10.1,2.85,0.31,14.49,14.49,14.28
-10.48,3.05,0.22,12.67,12.46,12.46
-10.86,3.15,0.11,12.18,12.18,12.39
-11.19,2.9,-0.24,14.07,14.07,14.35
-11.1,2.74,-0.5,16.94,16.94,17.43
-10.74,2.58,-0.45,21.42,21.42,22.19
-10.64,2.44,-0.43,26.39,26.39,27.09
-10.68,2.44,-0.17,32.48,32.48,32.48
-10.72,2.45,-0.1,33.95,33.95,33.95
-10.72,2.06,-0.1,32.2,32.2,31.85
-10.72,1.93,0.31,28.28,28.28,28.28
-10.74,1.93,0.51,25.06,25.06,23.52
-10.62,2.11,0.61,17.64,17.64,17.64
-10.38,2.04,0.74,3.57,3.57,3.57
-10.01,1.93,0.74,-7,-7,-7
-9.76,2,0.82,-12.74,-12.74,-12.74
-9.65,2.17,0.88,-18.27,-18.27,-18.27
-9.62,2.12,0.91,-21.07,-22.12,-22.12
-9.54,1.83,1.02,-24.5,-24.92,-24.92
-9.34,1.42,1.19,-23.8,-23.8,-23.24
-9.22,1.4,1.32,-18.76,-17.22,-17.22
-9.19,1.5,1.43,-12.32,-10.57,-10.57
-9.44,1.72,1.79,-5.04,-5.04,-4.13
-9.67,1.86,2.02,2.73,2.73,2.73
-9.83,2.03,1.88,7.42,7.42,7.42
-10.02,2.34,1.62,12.88,12.88,12.88
-10.05,2.7,1.55,15.05,15.68,15.68
-9.99,2.92,1.28,16.31,16.31,16.03
-9.93,2.85,1.23,14.07,14.07,13.72
-9.93,2.61,1.15,10.43,10.43,10.43
-9.78,2.31,0.86,8.82,8.82,8.82
-9.57,2.17,0.59,8.75,8.75,8.75
-9.62,2.19,0.54,7.77,7.42,7.42
-9.69,2,0.5,3.5,3.5,3.15
-9.85,1.99,0.55,1.68,1.68,1.54
-9.92,1.95,0.56,2.17,2.52,2.8
-9.87,1.87,0.44,3.92,4.06,4.06
-10.05,2.07,0.62,3.78,3.78,3.78
-10.27,2.27,0.73,3.22,3.29,3.29
-10.15,2.03,0.57,3.71,3.71,4.34
-10.08,1.9,0.52,6.72,6.72,7.21
-10.09,2,0.55,9.87,9.87,10.36
-10.01,2.14,0.53,13.23,13.23,13.23
-10.24,2.5,0.47,9.24,9.24,9.1
-9.96,2.74,0.39,8.82,8.82,8.82
-9.83,2.79,0.29,8.26,8.26,8.26
-9.74,2.81,0.19,6.86,6.79,6.79
-9.64,2.74,0.14,5.6,5.6,5.46
-9.45,2.67,-0.09,5.39,5.46,5.46
-9.38,2.75,-0.28,7.7,7.7,7.7
-9.32,2.73,-0.25,9.38,9.66,9.66
-9.26,2.62,-0.06,9.31,9.31,8.89
-9.26,2.47,0.07,7.56,7.56,7.21
-9.32,2.35,0.13,7.49,7.49,7.49
-9.25,2.71,0.28,7.63,7.63,7.63
-8.99,3.07,0.18,4.06,4.06,4.06
-8.81,2.98,0.25,-2.38,-2.38,-2.38
-8.66,2.46,0.57,-9.17,-9.17,-9.17
-8.67,2.29,0.58,-15.82,-15.82,-16.31
-8.7,2.23,0.25,-19.88,-19.88,-19.88
-8.57,2.31,0.22,-22.61,-22.61,-22.61
-8.72,2.08,0.26,-25.97,-25.97,-25.97
-9.17,1.62,0.11,-27.65,-27.86,-27.86
-9.81,1.5,-0.19,-27.16,-27.16,-26.53
-10.33,1.64,-0.13,-24.43,-24.43,-23.73
-10.72,1.35,0.1,-22.89,-22.89,-22.89
-10.9,1.08,0.02,-21.56,-21.28,-21.28
-11.05,0.24,0.06,-19.6,-19.6,-19.39
-11.04,-0.17,0.61,-17.5,-17.5,-17.08
-10.91,-0.09,0.57,-14.35,-14.35,-13.86
-10.64,0.53,0,-11.27,-11.27,-10.92
-10.69,0.23,-0.14,-10.01,-9.8,-9.73
-10.58,0.22,0.45,-9.03,-8.82,-8.68
-9.73,0.15,0.77,-8.19,-7.98,-7.84
-9.15,1.22,0.88,-7.35,-7.35,-7.21
-8.65,1.45,0.91,-9.66,-9.66,-9.66
-8.09,0.59,1.26,-16.73,-16.73,-16.73
-7.76,0.1,1.67,-22.4,-22.4,-22.4
-7.61,0.27,1.8,-28.42,-28.42,-28.42
-7.94,0.61,1.7,-33.88,-36.33,-36.33
-8.08,0.57,1.59,-46.13,-46.13,-46.13
-8.17,0.61,1.49,-53.06,-53.06,-53.83
-8.02,0.17,1.68,-55.23,-55.51,-55.51
-7.9,-1.13,1.6,-57.75,-57.75,-57.75
-8.01,-1.26,1.43,-55.09,-52.99,-52.99
-8.7,-1.08,1.53,-31.5,-30.24,-30.24
-9.04,-1.91,1.46,-21.77,-21.77,-19.6
-8.84,-2.58,1.26,-10.99,-10.99,-10.99
-8.82,-1.44,1.54,9.1,9.1,9.1
-9.27,-0.76,1.78,21.63,21.63,21.63
-9.93,-0.68,1.23,25.83,26.39,26.39
-9.97,-0.7,0.68,26.53,26.53,26.46
-10.5,-0.23,1.71,25.62,25.62,25.48
-11.13,-0.05,2.01,24.08,23.03,23.03
-10.51,-1.37,1.88,17.92,17.22,17.22
-10.06,-1.88,1.62,12.67,12.67,12.81
-10.02,-1.46,1.69,14.21,15.33,15.89
-10.07,-0.94,1.92,19.18,20.3,20.72
-9.59,-1.03,2.24,21.77,21.77,21.7
-9.15,-1.29,2.17,21.14,21.14,20.86
-8.75,-1.26,1.59,20.72,21,21
-9.15,-0.23,1.76,15.26,15.26,14.49
-8.68,-0.58,1.18,9.03,9.03,9.03
-8.26,-1.15,0.77,6.44,6.44,6.44
-8.72,-1.36,0.49,6.02,6.02,6.02
-9.07,-0.78,0.7,9.66,9.66,9.66
-8.77,-0.5,0.58,14.42,15.05,15.89
-8.71,-0.43,-0.39,17.08,17.36,17.36
-9.54,-0.08,-0.62,18.06,18.34,18.34
-10.37,0.26,0.14,20.79,21.07,21.07
-10.03,0.27,0.26,21.56,21.35,21.35
-9.9,0,-0.5,17.71,17.71,17.71
-10.03,0.4,-0.66,10.01,9.24,9.24
-10.01,0.82,0.09,5.11,5.11,4.48
-9.66,0.57,0.11,3.57,3.57,3.29
-9.45,0.35,-0.57,-0.35,-0.35,-0.7
-9.93,0.86,-0.1,-3.22,-3.22,-3.22
-9.56,0.64,0.33,-2.45,-2.45,-2.03
-8.48,-0.02,0.19,2.24,2.24,2.24
-7.9,-0.73,-0.29,5.18,6.51,6.51
-8.03,-0.31,-0.49,11.83,13.93,13.93
-8.59,0.66,-0.09,20.23,20.23,21.84
-8.97,0.77,-0.1,23.45,23.45,23.45
-9.31,0.38,0.04,21.56,21.56,21.56
-9.58,0.71,-0.23,22.75,22.75,22.75
-9.71,1.24,-0.22,27.86,27.86,27.86
-9.38,1.57,-0.11,28.84,28.84,28.84
-9.45,1.68,-0.16,21.28,21.28,21.28
-10.16,1.57,-0.13,12.95,12.95,12.95
-10.5,1.62,-0.02,10.15,10.01,10.01
-10.08,1.47,0.26,10.15,10.15,9.94
-9.8,1.33,0.35,8.47,8.47,8.47
-9.84,0.66,0.59,-17.15,-0.14,-0.14
-10.22,0.34,0.98,-3.5,-3.36,-3.36
-10.1,0.37,1.05,-0.07,0.77,0.77
-9.57,0.54,0.4,10.08,10.08,10.92
-9.17,0.71,0.36,13.51,13.51,13.51
-9.98,1.29,0.61,11.2,9.87,9.87
-10.88,1.91,0.86,6.72,6.72,6.72
-10.76,2.07,0.72,6.44,6.44,6.44
-10.48,2.23,0.48,5.67,5.67,5.67
-10.42,2.25,0.56,0.84,0.21,0.21
-10.82,2.35,0.53,-3.43,-3.99,-3.99
-10.24,1.75,0.02,-10.57,-10.57,-10.57
-10.24,1.48,0.22,-10.78,-10.57,-10.57
-10.34,1.75,0.89,-6.72,-6.02,-6.02
-10.18,1.95,0.92,-2.59,-2.17,-2.17
-9.81,1.64,0.37,0.21,0.63,0.63
-9.4,1.28,0.18,4.48,5.18,5.18
-9.46,1.12,0.37,10.29,10.29,11.2
-9.87,1.39,0.67,15.61,35.14,18.13
-9.93,1.6,0.64,21.84,21.84,23.8
-9.67,1.78,0.3,27.37,27.37,27.79
-9.59,2.03,0.14,29.12,29.19,29.19
-10.51,2.7,0.22,23.24,23.24,23.24
-10.43,2.57,0.04,19.18,17.99,17.99
-10.18,2.43,-0.21,15.54,15.12,14.35
-10.08,2.41,-0.27,12.81,12.74,12.74
-10.29,2.4,-0.26,12.81,12.88,12.88
-10.58,2.49,-0.31,11.2,11.2,10.92
-10.54,2.7,-0.22,8.54,7.35,6.79
-10.35,2.57,-0.23,3.92,3.92,2.31
-10.24,2.22,-0.27,-0.14,-0.14,-0.21
-10.05,1.8,-0.3,0.07,0.07,0.28
-9.66,1.59,-0.35,2.17,2.17,2.45
-9.46,1.62,-0.33,3.85,3.92,3.92
-9.76,1.75,-0.06,4.69,4.69,4.69
-9.93,1.73,0.08,5.53,5.53,5.53
-9.82,1.64,0.23,6.02,6.02,5.95
-9.62,1.58,0.35,5.74,5.74,5.67
-9.54,1.46,0.47,4.83,4.83,4.83
-9.72,1.45,0.59,4.55,4.55,4.55
-9.97,1.64,0.65,4.27,3.99,3.99
-10.04,1.96,0.75,2.94,2.94,2.24
-10.01,2.19,0.69,-0.14,-0.14,-1.33
-9.9,1.97,0.63,-4.48,-4.48,-4.48
-9.83,1.57,0.54,-7.21,-7.21,-7.21
-9.6,1.25,0.42,-6.44,-6.44,-5.95
-9.24,1.11,0.27,-3.57,-3.57,-3.57
-9.02,1.17,0.24,-0.07,-0.07,0.84
-9.21,1.25,0.19,3.29,3.29,3.29
-9.51,1.04,0.06,4.41,4.48,4.48
-9.66,0.93,0,4.97,5.11,5.11
-9.7,1.2,0,5.88,5.88,6.09
-9.67,1.7,0.15,5.74,5.74,5.53
-9.8,1.99,0.22,3.57,3.57,3.57
-9.96,2.23,0.38,-0.84,-1.4,-1.4
-10.11,2.39,0.4,-3.92,-5.32,-5.32
-10.03,2.12,0.34,-8.61,-8.61,-8.61
-9.93,1.87,0.28,-11.62,-11.62,-11.62
-9.78,1.79,0.25,-11.9,-11.83,-11.83
-9.52,1.71,0.26,-11.13,-11.13,-11.13
-9.36,1.58,0.23,-9.59,-9.24,-9.24
-9.31,1.23,0.18,-7.77,-7.77,-7.77
-9.35,1.01,0.13,-3.64,-3.64,-3.64
-9.43,1.07,0.19,-0.21,-0.21,-0.21
-9.55,1.36,0.27,1.68,2.24,2.24
-9.67,1.61,0.36,2.94,2.94,2.94
-9.76,1.65,0.31,1.96,1.96,1.96
-10.12,1.58,0.39,-1.47,-1.47,-1.47
-10.15,1.65,0.41,-2.52,-2.52,-2.52
-10.04,1.58,0.35,-4.13,-4.13,-4.13
-9.89,1.38,0.3,-4.9,-4.9,-4.97
-9.77,1.35,0.29,-4.34,-4.34,-4.34
-9.73,1.48,0.2,-2.94,-2.94,-2.94
-9.58,1.63,0.1,-1.68,-1.68,-1.68
-9.58,1.84,0.05,0.28,0.28,0.28
-9.84,1.96,0.17,1.68,1.68,1.68
-9.98,2.07,0.2,2.1,2.1,2.1
-10.04,2.12,0.18,1.26,0.7,0.7
-9.83,1.97,0.09,-1.4,-1.4,-1.82
-9.6,1.81,0.03,-3.01,-3.15,-3.15
-9.43,1.65,0.14,-1.47,-1.47,-1.4
-9.54,1.46,0.26,-0.14,0.21,0.21
-9.76,1.51,0.45,1.4,1.4,1.89
-10.06,1.82,0.61,3.71,3.71,3.71
-9.94,1.91,0.33,2.1,2.1,2.1
-9.7,1.74,0.12,-0.07,-0.07,-0.35
-9.41,1.38,-0.12,-2.1,-2.1,-2.24
-8.95,0.75,-0.61,-4.13,-4.13,-4.13
-8.59,0.19,-1.01,-7,-7,-7
-8.53,-0.64,-1.11,-10.43,-11.62,-11.62
-8.69,-1.09,-1.14,-15.75,-15.75,-17.15
-9.13,-0.79,-0.73,-20.79,-20.79,-21.91
-10.24,0.55,0.04,-23.17,-22.96,-22.47
-10.49,1.1,0.36,-21.7,-21.63,-21.63
-10.74,1.8,0.82,-22.47,-22.47,-22.47
-10.73,2.1,0.93,-23.38,-23.38,-23.38
-10.58,1.94,0.96,-22.33,-21.49,-21.49
-10.29,1.49,1,-17.78,-17.78,-17.78
-10.09,1.12,1.04,-11.76,-11.76,-11.76
-9.86,0.75,0.91,-7.91,-6.86,-6.86
-9.72,0.66,0.75,-2.59,-1.12,-1.12
-9.57,0.91,0.53,4.34,4.34,4.34
-9.54,1.17,0.4,10.85,11.62,11.62
-9.66,1.64,0.46,14.91,15.4,15.4
-9.65,2.07,0.46,17.43,17.57,17.57
-9.7,2.67,0.46,16.38,16.38,16.1
-9.93,3.11,0.68,13.86,13.86,13.86
-10.14,3.3,0.82,9.38,8.68,8.68
-10.25,3.09,0.9,3.71,3.71,3.71
-9.89,2.44,0.77,-1.54,-1.54,-1.54
-9.38,1.65,0.59,-3.5,-3.5,-3.5
-9.14,1.03,0.43,-0.28,-0.28,-0.28
-9.05,0.56,0.22,3.64,3.64,3.64
-9.19,0.44,0.21,6.23,6.93,6.93
-9.49,0.63,0.15,9.1,9.1,10.01
-9.85,0.45,0.13,13.44,13.44,13.44
-10.4,0.68,0.21,16.03,16.59,16.59
-10.92,1.14,0.18,17.29,17.29,17.08
-11.32,1.9,0.05,15.75,15.33,15.33
-11.75,2.68,-0.07,12.53,12.53,11.9
-12.14,3.11,-0.11,5.18,5.18,5.18
-12.29,3.44,0.08,-3.08,-3.08,-3.08
-12.37,3.62,0.19,-12.6,-12.6,-12.6
-12.07,3.85,0.06,-19.46,-21.63,-21.63
-11.69,3.9,-0.02,-28.21,-30.38,-30.38
-11.07,4,-0.01,-36.89,-36.89,-37.52
-10.52,3.84,-0.08,-42.14,-42.14,-42.14
-10.13,3.8,-0.09,-42.56,-42.56,-42.49
-9.59,3.58,-0.25,-41.23,-41.23,-40.53
-8.9,3.86,-0.06,-31.29,-31.29,-31.29
-8.72,3.79,-0.12,-26.53,-26.53,-26.53
-8.53,3.74,-0.06,-23.17,-21.77,-21.77
-8.41,3.88,0.15,-17.36,-17.36,-17.36
-8.2,4.04,0.24,-9.17,-9.17,-9.17
-8.33,4.93,-0.15,2.66,4.13,4.76
-8.3,5,-0.24,7,7,7.56
-8.51,5.14,-0.03,8.89,8.89,8.89
-8.55,5.12,-0.22,11.06,11.69,11.69
-8.18,5.04,-0.3,12.32,12.32,12.32
-7.91,5.39,-0.16,10.36,9.94,9.94
-7.79,5.67,0.09,5.04,3.43,2.87
-7.85,5.73,0.21,0,0,-1.33
-7.52,5.43,-0.26,-3.85,-3.85,-3.85
-7.38,5.57,-0.4,-6.86,-6.86,-6.86
-7.45,5.75,-0.08,-9.38,-9.87,-9.87
-7.48,5.68,-0.01,-13.72,-13.72,-14.14
-7.85,5.53,-0.05,-15.12,-15.12,-15.19
-7.79,5.19,-0.47,-14.84,-14.84,-14.84
-8.05,5.41,-0.2,-13.86,-13.86,-13.86
-8.46,5.72,-0.04,-13.65,-13.72,-13.72
-8.47,5.69,0.16,-14.91,-14.91,-14.98
-7.79,5.25,0.05,-17.85,-17.85,-19.18
-7.42,4.88,-0.06,-20.51,-20.51,-20.86
-7.58,4.85,0.17,-19.95,-19.95,-19.6
-7.73,4.93,0.65,-15.12,-14.49,-14.49
-7.06,4.66,0.75,-10.71,-10.71,-10.36
-6.52,4.13,0.09,-10.08,-10.08,-10.08
-6.62,3.76,0.2,-8.82,-8.82,-8.82
-7.3,4.35,0.98,-4.48,-2.73,-2.73
-6.87,4.47,1.1,1.68,1.68,2.73
-5.98,4.55,0.78,3.64,3.64,3.64
-5.85,4.91,0.98,2.8,2.8,2.8
-5.8,5.14,1.21,3.64,3.64,3.64
-5.63,5.81,1.29,3.64,3.64,3.64
-5.18,6.4,1.16,-0.63,-3.01,-3.01
-5.13,6.76,1.01,-11.06,-11.06,-13.58
-5.6,7.02,1.1,-19.32,-19.32,-19.32
-5.86,6.58,0.66,-22.26,-22.26,-22.26
-6.21,6.68,0.1,-20.86,-20.86,-20.86
-6.78,6.91,-0.02,-20.93,-20.93,-20.93
-7.22,7.4,0.15,-22.26,-22.82,-22.82
-7.4,7.64,0.33,-24.36,-24.36,-24.85
-7.13,7.43,0.06,-26.74,-26.74,-26.74
-7.21,7.38,0.12,-28.98,-28.98,-28.98
-7.17,6.76,0.8,-28,-27.3,-27.3
-6.42,5.6,0.81,-15.4,-13.72,-13.72
-5.81,5.15,0.75,0.49,2.45,2.45
-5.44,5.13,0.88,12.18,13.86,17.57
-5.27,5.1,1.06,28.91,28.91,30.45
-5.44,5.14,0.99,42.35,42.35,42.35
-5.9,5.44,1.09,46.83,46.83,47.6
-6.56,5.81,1.31,47.11,47.11,47.11
-7.07,5.98,1.26,43.61,43.61,43.19
-7.33,6.04,0.8,40.81,40.18,40.18
-7.48,6.03,0.61,36.26,36.26,35.56
-7.72,5.76,0.91,24.92,24.92,24.92
-7.99,5.38,0.8,16.52,16.52,16.52
-8.04,4.95,0.51,10.99,10.99,10.99
-8.06,4.82,0.74,12.18,12.18,12.18
-7.83,4.57,0.83,13.16,12.95,12.95
-8.14,4.57,0.58,12.39,12.53,12.53
-8.24,4.45,-0.01,14.35,16.1,16.1
-8.31,5.05,0.11,20.93,20.93,20.93
-8.27,5.34,0.27,22.26,22.26,22.26
-8.53,5.49,0.21,17.5,16.66,16.66
-8.79,5.36,-0.22,10.36,10.36,10.36
-8.99,5.58,-0.31,5.67,5.25,5.25
-9.01,5.75,-0.23,2.87,0.7,0.7
-9.03,5.85,-0.27,-4.41,-5.67,-8.47
-8.7,4.57,-0.99,-18.48,-18.62,-18.62
-8.32,4.11,-0.35,-16.31,-15.96,-15.96
-7.81,3.72,-0.36,-12.81,-12.81,-12.81
-7.19,3.08,-0.73,-8.26,-5.32,-5.32
-7.23,2.9,-0.68,0.56,1.75,4.34
-7.93,3.62,0.1,12.74,12.74,13.79
-8.73,4.03,0.63,18.83,19.6,19.6
-9.71,4.01,0.13,17.22,17.22,17.22
-10.09,4.11,0.53,12.6,12.6,11.76
-10.14,4.87,1.35,5.25,5.25,5.25
-9.67,4.97,1.33,-0.28,-0.28,-0.28
-9.15,4.89,0.89,-6.09,-6.09,-7.7
-9.04,4.35,0.93,-12.11,-12.11,-12.11
-9.33,3.65,1.06,-15.33,-15.33,-15.33
-9.65,3.22,0.86,-15.05,-15.05,-14.35
-9.43,2.88,0.6,-11.83,-11.83,-11.83
-8.98,2.77,0.53,-7.42,-7.42,-7.42
-8.72,2.67,0.52,-3.78,-3.78,-3.78
-8.79,2.52,0.74,1.75,1.75,1.75
-9.49,2.53,0.84,7.35,7.35,7.35
-9.88,2.83,1.13,13.44,13.44,13.44
-9.97,3.35,1.23,14.98,15.33,15.33
-9.89,3.47,1.17,15.12,15.12,15.12
-10.17,3.21,1.18,12.25,12.25,12.04
-10.75,3.08,1.38,10.57,9.94,9.8
-11.03,3.01,1.61,8.96,8.96,8.96
-10.46,3.01,1.45,9.73,9.87,9.87
-9.58,2.84,1.15,10.5,10.57,10.57
-9.2,2.49,0.77,11.27,11.27,11.48
-9.11,2.27,0.78,12.74,12.74,13.23
-9.31,2.29,0.76,16.24,16.24,16.24
-9.27,2.51,0.65,17.92,18.06,18.06
-9.05,2.77,0.52,17.5,17.5,17.29
-9.11,3.24,0.71,15.47,14.77,14.42
-9.76,3.63,1.06,12.25,11.83,11.83
-9.88,3.78,1.25,7.21,7.21,7.21
-9.8,3.87,1.47,-0.63,-0.63,-0.63
-9.58,3.48,1.5,-8.54,-8.54,-8.54
-9.29,3.28,1.68,-12.25,-12.25,-12.6
-9.58,3.3,2.08,-14.42,-14.42,-14.42
-10.11,3.44,2.23,-16.1,-16.1,-16.1
-10.05,3.01,2.17,-19.46,-19.46,-19.46
-9.8,2.53,2.14,-20.09,-20.09,-20.09
-9.52,1.74,2.07,-18.76,-18.48,-18.48
-9.36,1.22,2,-17.43,-17.22,-17.22
-9.19,0.73,2.05,-15.68,-15.4,-15.4
-9.3,0.67,2.33,-12.39,-12.39,-11.97
-9.47,1.13,2.66,-11.06,-10.85,-10.92
-9.6,1.74,3.03,-11.55,-12.25,-12.53
-9.72,2.29,3.1,-14.63,-14.63,-16.31
-9.86,2.57,3.08,-19.53,-19.53,-20.02
-9.93,2.67,2.94,-23.94,-23.94,-24.43
-9.81,1.27,2.64,-27.16,-27.16,-27.37
-9.43,2.19,2.39,-27.09,-27.09,-27.09
-9.03,1.72,2.26,-24.5,-24.5,-24.01
-8.84,1.18,2.04,-17.71,-17.71,-17.71
-9.44,0.68,1.99,17.15,0.77,0.77
-9.89,1,1.85,13.02,14.35,14.35
-10.16,1.43,1.69,21.07,21.77,21.77
-10.35,1.79,1.53,25.27,25.62,25.62
-10.33,2.53,1.4,25.06,25.06,24.78
-9.98,2.47,1.35,23.03,22.26,21.91
-9.52,2.2,1.32,20.23,19.53,19.25
-8.97,1.89,1.18,17.22,17.22,17.22
-8.68,1.61,1.24,15.47,15.47,15.47
-8.49,1.46,1.22,13.79,13.58,13.58
-8.72,1.59,1.22,11.83,11.55,11.55
-9.27,1.94,1.21,8.96,8.96,8.96
-9.73,2.29,1.2,6.86,6.65,6.65
-10.08,2.23,1.12,5.46,5.18,5.18
-10.37,2.2,1.23,4.13,4.2,4.2
-10.55,2.14,1.28,5.11,5.25,5.25
-10.47,2.22,1.25,6.86,7.07,7.07
-10.39,2.33,1.18,8.33,8.33,8.47
-10.32,2.44,1.12,8.47,8.26,8.4
-10.03,2.35,1.11,8.33,8.47,8.47
-9.68,2.13,1.09,9.31,9.31,9.52
-9.39,1.92,1.14,9.52,9.45,9.45
-9.32,1.91,1.32,7.42,7.42,7.42
-9.38,2.14,1.45,5.18,4.27,4.27
-9.52,2.52,1.54,1.68,1.68,0.77
-9.45,2.78,1.46,-2.03,-2.03,-3.08
-9.27,2.87,1.4,-6.37,-6.37,-6.37
-9.15,2.79,1.5,-12.88,-12.88,-12.88
-8.93,2.6,1.43,-16.8,-16.8,-16.8
-8.73,2.27,1.27,-20.16,-20.16,-20.44
-8.63,2.02,1.19,-20.86,-20.79,-20.58
-8.85,2.05,1.07,-19.18,-18.55,-17.92
-8.99,2.17,1,-15.47,-14.21,-13.65
-9.11,2.24,0.84,-10.92,-9.94,-9.52
-9.17,1.88,0.83,-7.14,-6.23,-5.88
-9.24,1.45,0.78,-3.29,-3.29,-1.61
-9.28,1.12,0.76,3.08,3.08,3.08
-9.43,1.21,0.78,9.66,9.66,9.66
-9.64,1.53,0.77,12.04,12.39,12.39
-9.98,1.9,0.86,11.76,11.76,10.92
-10.34,2.14,0.94,5.46,5.46,5.46
-10.61,2.3,1,-1.75,-1.75,-1.75
-11.06,3,1.2,-14.35,-15.12,-15.12
-10.91,3.2,1.16,-18.62,-20.86,-20.86
-10.83,3.21,1.22,-24.22,-25.83,-25.83
-10.89,3.04,1.32,-27.86,-28.21,-28.21
-10.79,2.55,1.36,-28.49,-28.49,-28.28
-10.14,1.99,1.07,-23.38,-23.38,-22.89
-9.7,1.86,0.82,-19.95,-19.95,-19.95
-9.49,1.86,0.76,-15.47,-15.47,-15.47
-9.39,1.51,0.72,-13.51,-13.51,-13.51
-9.44,1.37,0.97,-11.34,-11.34,-11.34
-9.56,1.35,1.06,-9.17,-8.26,-8.26
-9.56,1.41,1.16,-5.18,-5.18,-4.06
-9.65,1.53,1.29,-1.05,-1.05,-1.05
-9.83,1.89,1.56,1.12,1.12,1.12
-10.09,2.05,1.6,0.7,0.7,0.56
-10.05,2.13,1.46,1.12,1.12,1.12
-9.98,2.16,1.41,4.34,4.34,4.34
-9.98,2.25,1.41,4.83,4.83,4.83
-10.28,2.57,1.56,2.03,0.35,0.35
-10.52,2.87,1.77,-6.58,-6.58,-6.58
-10.13,2.98,1.79,-26.11,-26.11,-26.11
-10.13,3.01,1.72,-33.53,-35.49,-35.49
-10.12,3.14,1.72,-40.74,-42.07,-42.07
-9.8,2.92,1.61,-43.75,-43.68,-43.68
-9.56,2.51,1.69,-42.28,-42.28,-41.51
-9.8,2.32,2.16,-37.38,-36.54,-36.54
-9.57,2.07,2.25,-30.52,-29.33,-29.33
-8.98,2.1,2.1,-19.32,-17.57,-17.57
-8.61,2.45,2.19,-1.33,-1.33,0.56
-8.69,2.73,2.45,7.63,8.96,8.96
-8.71,2.61,2.79,17.43,17.43,18.27
-8.57,2.44,2.77,22.33,22.33,22.89
-8.3,2.41,2.33,25.2,25.2,25.27
-8.24,2.58,2.4,24.08,24.08,23.8
-8.49,2.85,2.71,18.76,18.76,18.76
-8.62,2.69,2.39,12.67,12.67,12.67
-8.59,3,2.36,7.49,5.74,5.74
-8.98,3.98,1.94,0.63,0.63,-0.84
-9,4.41,1.73,-6.02,-6.02,-6.02
-8.97,4.5,1.94,-17.43,-17.43,-19.11
-9.27,4.68,2.23,-34.37,-34.37,-34.37
-9.44,4.37,2.12,-43.26,-43.26,-43.26
-9.66,4.23,2.12,-46.06,-46.55,-46.55
-9.33,3.73,1.98,-46.41,-46.41,-46.13
-8.66,3.08,1.89,-43.96,-43.96,-43.96
-8.79,3.29,1.54,-38.22,-38.22,-38.22
-8.89,2.26,2.77,-21.63,-21.63,-20.79
-9.05,2.08,3.29,-16.87,-16.87,-16.24
-8.42,1.85,2.92,-9.87,-9.87,-9.87
-7.85,1.2,3.03,-6.23,-6.23,-5.67
-7.75,0.94,3.37,-3.57,-3.57,-3.22
-7.35,1,3.8,-2.52,-2.52,-2.52
-6.59,1.34,4.08,-3.57,-3.78,-3.78
-6.24,1.46,4.16,-5.39,-5.39,-5.53
-6.07,1.46,3.91,-4.76,-4.76,-4.34
-6.73,2.18,3.69,1.96,4.55,4.55
-6.95,2.19,3.44,13.44,13.44,14.49
-7.37,2.12,3.55,20.02,20.02,20.02
-7.71,2.21,3.23,28.14,27.79,27.79
-8.03,2.6,4.15,23.94,23.94,23.73
-8.14,3.08,4.3,22.05,22.05,22.05
-8,3.05,3.84,19.81,19.81,19.32
-8.25,3.22,3.42,16.03,15.61,15.61
-8.86,3.89,3.38,14.77,14.77,14.91
-9.03,3.58,3.33,15.82,15.82,15.82
-8.77,2.91,3.24,14.35,14.35,13.93
-8.57,2.42,3.58,9.03,9.03,8.33
-8.37,2.03,3.87,4.62,3.85,3.85
-8.25,1.86,3.77,-0.49,-0.49,-0.63
-8.03,1.59,3.35,-0.77,-0.77,-0.63
-7.64,1.37,3.26,1.05,1.05,1.4
-7.58,1.63,3.57,3.57,3.57,3.99
-7.86,1.95,3.5,5.53,5.74,5.74
-8,1.89,3.2,9.1,9.1,9.73
-8.02,1.7,3.08,13.02,14.49,15.12
-7.97,1.54,2.97,17.85,17.85,19.11
-8.45,2.12,2.59,22.19,22.19,22.54
-8.76,2.56,2.39,23.87,23.87,23.94
-9.24,2.51,2.55,22.96,22.96,22.96
-9.25,2.36,2.43,23.17,22.96,22.96
-9.11,2.17,1.9,22.61,22.54,22.4
-8.85,2.02,1.44,20.23,20.23,20.23
-9.12,2.04,1.53,14.42,14.42,14.42
-9.73,2.3,1.65,4.62,4.62,4.62
-9.83,2.14,1.49,-0.28,-0.28,-1.05
-9.34,1.79,1.06,-4.55,-4.55,-4.55
-8.93,1.66,1.17,-4.69,-4.41,-4.41
-8.77,1.87,1.44,-3.36,-3.08,-3.08
-8.92,2.17,1.18,-1.75,-1.75,-1.61
-9.1,2.32,1.08,-1.47,-1.47,-1.4
-9.61,2.49,1.29,-1.05,-0.84,-0.84
-9.75,2.41,1.23,-0.42,-0.42,-0.28
-9.64,2.17,0.93,-0.07,-0.07,0
-9.82,2.07,0.9,-0.49,-0.63,-0.91
-10.42,2.22,0.79,-1.68,-1.68,-2.03
-11.06,2.34,0.4,-2.59,-2.59,-2.59
-10.67,2.55,0.12,-0.98,-0.98,-0.98
-10.34,2.48,0.03,-3.36,-3.36,-3.85
-9.95,2.37,-0.03,-7.28,-7.28,-7.56
-9.64,2.12,-0.2,-8.68,-8.68,-8.68
-9.31,1.64,-0.3,-7.14,-7.14,-6.72
-9.01,1.34,-0.23,-3.57,-3.57,-3.08
-8.71,0.99,-0.09,-0.49,-0.49,-0.07
-8.54,1.08,0.41,4.55,4.55,4.97
-8.83,1.28,0.91,6.58,6.58,6.58
-9.09,1.61,1.12,6.23,6.09,5.74
-9.4,1.94,1.15,4.34,4.34,4.13
-10.11,1.8,1.29,2.17,2.17,2.17
-10.66,1.62,1.43,0.98,0.49,0.49
-11.15,1.77,1.58,-0.63,-0.7,-0.7
-11.1,2.08,1.23,-1.26,-1.33,-1.33
-11.29,2.39,0.85,-1.61,-1.61,-1.61
-11.66,2.43,0.82,-4.2,-4.48,-4.48
-11.68,2.03,0.73,-5.39,-5.25,-5.25
-11.4,1.45,0.41,-3.71,-3.29,-3.29
-11.08,1.41,0.34,-1.19,-1.19,-0.91
-10.74,1.52,0.42,0.91,1.05,1.05
-10.37,1.59,0.44,1.82,1.82,1.82
-10.1,1.73,0.42,2.03,1.96,2.03
-9.85,1.92,0.38,2.1,2.1,2.1
-9.56,2.08,0.32,2.03,2.03,2.03
-9.47,2.27,0.56,1.89,1.89,1.82
-9.39,2.25,0.57,1.4,1.4,1.33
-9.38,2.11,0.51,1.47,1.68,1.75
-9.5,2.12,0.58,3.85,3.85,3.85
-9.43,2.05,0.39,7.21,7.21,7.21
-9.23,1.98,0.06,12.04,12.04,12.04
-9.15,1.91,-0.02,14.7,15.26,15.26
-9.85,1.77,0.21,17.92,17.92,18.13
-9.97,1.69,0.25,18.06,18.06,17.99
-9.96,1.82,0.33,17.29,17.29,17.29
-10.05,2.2,0.34,16.31,16.31,16.31
-10.36,2.6,0.45,11.83,11.83,11.83
-11.04,2.83,0.6,0.14,0.14,-1.33
-11.01,2.6,0.31,-5.53,-6.02,-6.02
-10.79,2.48,-0.11,-7.35,-7.35,-7.14
-10.59,2.36,-0.11,-6.58,-6.58,-6.58
-10.36,2.05,-0.05,-5.39,-5.46,-5.46
-10.26,1.86,0.05,-4.97,-4.83,-4.83
-10.01,1.67,0.14,-3.99,-3.99,-3.99
-9.71,1.56,-0.31,-0.14,0.56,0.56
-9.53,1.77,-0.31,7,8.05,8.05
-9.74,2,-0.07,13.93,14.84,14.84
-10.08,2.3,0.58,21.28,21.28,21.91
-10.6,2.59,0.89,24.5,24.5,24.71
-10.86,2.52,0.91,25.06,25.06,25.06
-11.1,2.45,0.9,24.85,24.92,24.92
-11.04,2.49,0.99,26.18,26.18,26.18
-10.87,2.47,0.75,25.76,25.76,24.99
-10.85,2.55,0.4,20.86,20.86,20.86
-11.1,2.36,-0.26,11.76,11.76,11.76
-11.09,2.26,-0.67,9.38,9.38,9.38
-11.04,2.26,-0.79,11.48,11.76,11.76
-10.89,2.01,-0.91,12.25,11.9,11.9
-10.58,1.72,-1.11,10.64,10.43,9.87
-10.48,1.65,-1.15,8.68,8.54,8.54
-10.33,1.7,-1.15,9.38,9.38,9.59
-10.2,1.61,-1.2,10.08,9.94,9.94
-10.11,0.95,-1.24,7.84,7.35,7.35
-9.88,0.9,-0.91,5.11,5.11,5.11
-9.76,1.5,-0.6,8.54,10.43,10.43
-9.53,2.36,-0.82,17.64,17.64,17.64
-9.49,2.84,-0.65,22.61,22.82,22.82
-9.92,2.02,-0.7,18.62,16.45,15.4
-10.16,1.38,-0.56,10.85,10.85,9.45
-10.56,1.91,-0.24,12.67,12.67,12.67
-9.4,2.42,-0.45,24.29,24.29,24.29
-8.36,3.41,-0.52,26.46,26.46,26.46
-8.29,4.62,-0.15,19.88,19.88,16.31
-8.6,4.97,0.26,2.94,1.19,1.19
-9.01,4.63,0.62,-8.12,-8.12,-8.68
-8.6,3.58,0.23,-11.48,-11.48,-11.76
-7.95,3.22,0.49,-13.16,-13.93,-14.49
-6.63,1.75,0.33,-20.65,-20.65,-21
-6.03,0.49,-0.18,-18.62,-18.62,-17.64
-6.19,0.65,-0.31,-7,-7,-4.83
-6.42,1.02,-0.51,11.41,11.41,13.72
-6.7,1.14,-1,26.04,26.04,27.09
-7.16,1.48,-1.04,31.36,31.36,31.64
-8.05,2.28,-0.95,33.74,33.74,34.23
-7.95,2.99,-1.12,38.92,38.92,39.62
-7.25,3.47,-1.49,43.47,43.47,43.47
-7.58,4.35,-1.76,41.3,41.3,41.3
-8.4,5.89,-1.7,30.45,30.45,30.45
-8.77,6.36,-1.96,21.21,21.21,21.21
-9.08,6.96,-2.22,15.47,15.47,15.47
-8.71,7.03,-3.63,11.69,11.41,11.41
-8.27,7.54,-4.2,8.12,8.12,7
-8.92,8.29,-3.45,-4.69,-4.69,-4.69
-9.4,8.39,-3.09,-23.38,-23.38,-25.62
-9.42,7.56,-3.15,-42.56,-42.56,-42.56
-9.24,6.79,-2.8,-49.49,-51.31,-51.31
-8.82,6.28,-2.67,-55.23,-55.23,-56.07
-8,6.15,-2.3,-57.33,-57.33,-57.33
-6.71,5.61,-2.26,-55.3,-54.88,-54.88
-6.19,5.34,-2.25,-52.78,-51.03,-51.03
-6.53,5.3,-0.05,-45.36,-45.36,-45.36
-6.79,5.26,-0.8,-31.36,-29.33,-29.33
-5.97,4.47,-1.23,-17.36,-17.36,-15.54
-5.18,4.2,-1.4,-5.39,-3.85,-3.85
-4.96,4.24,-1.27,-2.8,-3.57,-3.57
-4.85,3.16,-1.32,-2.87,-2.87,-2.87
-5.4,3.72,-1.46,5.39,5.39,5.39
-5.6,4.15,-1.76,10.36,11.34,11.34
-6.63,5.07,-2.16,13.3,13.3,13.58
-8.25,5.79,-2.31,16.87,17.71,17.71
-9.14,6.21,-2.26,27.02,27.02,28
-9.47,6.35,-2.46,32.55,32.55,32.76
-9.69,6.38,-2.54,32.83,32.76,32.76
-9.49,6.02,-2.58,30.94,30.94,30.59
-8.76,5.99,-2.45,24.85,24.85,23.24
-8.95,6.15,-2.37,10.15,10.15,8.26
-9.41,6.2,-2.68,-0.07,-2.8,-3.78
-8.7,5.21,-2.91,-8.47,-9.8,-10.5
-7.57,4.51,-2.65,-13.51,-13.51,-15.54
-6.7,3.78,-2.58,-18.27,-18.27,-16.17
-5.94,2.96,-2.7,-7.63,-6.37,-6.37
-5.89,2.93,-2.06,1.26,1.26,1.61
-6.66,3.36,-2.06,1.54,1.54,1.47
-8.26,4.13,-2.32,1.4,1.47,1.54
-8.74,4.1,-2.64,1.4,1.4,1.12
-8.35,3.84,-2.01,-2.38,-4.13,-5.04
-8.22,3.57,-1.6,-11.27,-12.11,-12.11
-8.76,3.33,-2.05,-15.33,-15.33,-15.33
-8.53,3.18,-2.17,-11.2,-9.94,-9.31
-7.74,3.16,-1.25,-7.35,-7.35,-7
-7.4,3.1,-1.37,-6.58,-6.58,-6.44
-7.98,3.04,-1.81,-1.68,-0.28,-0.28
-8.06,3.2,-1.17,15.05,15.05,16.66
-8.04,3.9,-0.69,22.75,22.75,23.03
-8.15,4.61,-0.73,21.42,19.74,18.9
-8.71,4.02,-0.6,11.76,10.64,10.64
-8.95,4.1,0.56,0.77,-17.15,-0.14
-9.07,4.74,0.73,-6.58,-6.58,-7.56
-7.87,4.52,0.07,-16.17,-16.17,-17.57
-7.32,3.61,0.02,-24.36,-24.36,-25.62
-7.71,3.22,1.05,-30.38,-30.38,-30.17
-7.14,2.32,0.58,-18.69,-17.99,-17.99
-7.86,2.45,1,-13.93,-13.44,-13.44
-8.94,2.78,1.79,-10.22,-9.87,-9.87
-9.43,3.35,2.11,-7.63,-7.28,-7.28
-9.65,3.09,1.39,-5.04,-5.11,-5.11
-9.95,2.62,1.41,-5.32,-5.39,-5.39
-10.48,2.49,2.07,-5.81,-6.02,-6.02
-10.51,2.79,2.61,-6.86,-7.35,-7.35
-9.73,3.04,1.94,-9.38,-9.38,-9.38
-9.64,3.05,1.29,-12.53,-12.53,-13.02
-9.92,2.66,1.47,-15.4,-15.4,-15.4
-10.08,2.45,1.93,-13.3,-13.3,-13.3
-9.67,2.5,1.02,-8.82,-8.82,-8.82
-9.39,2.49,0.32,-5.25,-5.25,-5.25
-9.85,2.04,0.38,-3.99,-3.99,-3.99
-10.72,1.86,1.52,0.7,1.4,1.4
-11.04,2.26,2.07,4.27,5.39,5.39
-10.94,3.02,1.84,4.83,4.83,4.83
-10.93,2.86,1.79,-0.42,-0.42,-1.12
-11.36,2.19,2.5,-4.69,-4.69,-4.69
-11.75,1.6,3.16,-3.78,-3.22,-3.22
-11.42,1.38,3.43,-0.28,0.56,0.56
-10.78,1.4,3.46,2.24,2.24,2.73
-9.95,1.06,3.51,4.48,4.48,4.48
-10.02,1.19,3.77,6.51,6.58,6.58
-10.3,1.36,3.87,6.16,5.39,5.39
-10.49,1.75,3.8,2.66,2.66,2.66
-10.1,1.72,3.26,-1.68,-2.17,-2.17
-9.36,1.85,2.87,-4.34,-5.6,-5.6
-8.62,1.93,2.54,-7.91,-8.12,-8.12
-7.82,1.59,2.23,-8.19,-7.91,-7.91
-7.71,1.13,2.14,-4.41,-4.41,-3.71
-8.23,1.07,2.28,-0.84,-0.84,1.05
-8.37,1.16,1.99,3.92,3.92,4.48
-8.48,1.63,1.8,8.54,8.54,8.82
-8.69,1.95,1.85,10.15,10.15,10.29
-8.94,1.91,1.59,10.01,10.01,10.01
-9.71,1.89,1.65,8.75,8.75,8.61
-10.62,2.09,1.93,5.95,5.95,5.95
-11.51,2.38,2.04,3.85,3.85,3.85
-12,2.58,2.09,-0.63,-0.63,-0.63
-12.47,2.57,2.05,-4.9,-4.9,-4.9
-13.08,2.66,2.08,-11.06,-11.06,-11.06
-13.29,2.55,2.03,-14.14,-14.14,-14.14
-12.87,2.14,1.86,-14.91,-14.7,-14.7
-11.55,1.67,1.72,-10.08,-10.08,-10.08
-11.05,1.29,1.71,-6.44,-6.44,-6.44
-11,1.1,1.63,-2.31,-0.77,-0.77
-10.83,1.02,1.45,3.36,4.48,4.48
-10.66,1.12,1.19,7.42,7.42,8.26
-10.88,1.44,1.28,10.22,10.22,10.22
-11.29,1.83,1.66,7.56,7.56,7.56
-11.43,1.6,1.62,2.03,2.03,2.03
-11.26,1.48,1.49,-2.24,-2.73,-2.73
-11.11,1.52,1.33,-5.11,-5.74,-5.74
-10.87,1.9,1.34,-7.14,-7.49,-8.4
-10.27,2.04,1.19,-11.76,-12.6,-12.6
-9.81,1.69,0.81,-19.81,-20.51,-20.51
-9.67,1.68,0.81,-23.1,-23.1,-23.1
-9.45,1.75,0.74,-22.75,-22.75,-22.75
-9.18,1.9,0.63,-20.37,-20.23,-20.23
-9.25,1.91,0.89,-21.84,-22.33,-22.33
-9.37,1.63,0.97,-24.71,-26.11,-26.11
-9.44,1.4,0.98,-27.16,-27.16,-26.88
-9.3,1.74,0.88,-24.64,-23.1,-23.1
-9.02,2.4,0.97,-21.28,-21.42,-21.42
-8.75,2.32,1.27,-23.52,-23.52,-25.41
-8.63,1.85,1.77,-28.42,-28.42,-28.77
-8.22,1.14,1.93,-21.63,-21.63,-21.63
-7.62,1.08,1.96,-15.12,-15.12,-15.12
-7.74,0.86,2.48,-13.37,-13.3,-13.3
-8.24,0.67,3,-13.16,-12.95,-12.95
-8.41,2.66,2.14,-6.37,-6.37,-6.37
-9.3,2.69,2.96,-14.56,-15.82,-15.82
-9.72,2.08,3.61,-24.5,-25.06,-25.06
-9.45,2.02,3.15,-26.32,-26.32,-26.39
-9.13,1.99,3.19,-25.69,-25.69,-25.69
-8.73,1.41,3.57,-27.79,-28.98,-28.98
-8.76,0.8,3.84,-32.13,-32.41,-32.41
-9.38,1.23,3.59,-29.96,-29.96,-28.28
-9.19,0.89,3.46,-22.26,-22.26,-22.26
-8.89,1.3,3.35,-10.08,-10.08,-10.08
-9.05,1.91,3.05,1.19,1.19,1.19
-9.21,2.65,2.41,19.67,19.67,20.65
-9.45,2.81,2.87,23.87,23.87,23.87
-9.72,3.13,2.87,21.28,21.28,21.28
-9.42,3.02,3.63,11.41,11.41,11.41
-9.12,2.88,4.17,1.61,1.61,1.61
-8.21,2.01,4.33,-11.55,-11.55,-11.55
-6.75,0.9,4.39,-16.59,-16.59,-16.59
-5.92,0.68,4.49,-15.61,-14.56,-14.56
-5.35,0.79,4.13,-9.73,-7.56,-7.56
-5.63,1.94,2.93,4.2,4.2,4.2
-5.8,2.34,2.78,13.09,15.4,15.4
-6.44,2.5,3.24,20.09,20.09,21.42
-7.54,3,3.24,24.99,25.34,25.34
-8.35,3.55,3.09,25.41,24.22,24.22
-9.4,4.23,3.3,18.06,18.06,18.06
-9.9,4.03,3.88,3.29,3.29,3.29
-10.1,3.9,4.01,-5.67,-8.19,-8.19
-9.46,2.95,3.91,-15.47,-15.47,-16.31
-8.71,2.13,3.94,-19.53,-19.53,-19.53
-8.31,1.96,3.49,-15.82,-15.82,-15.82
-7.89,1.75,3.16,-10.15,-8.05,-8.05
-7.67,1.61,2.9,-0.56,-0.56,2.03
-7.48,1.31,3.08,9.73,9.73,9.73
-7.77,1.56,3.64,22.19,22.19,22.19
-7.65,1.62,4.05,28.56,28.56,28.56
-7.49,1.72,4.12,30.03,29.89,29.89
-7.44,1.89,3.96,28,28,27.72
-7.72,2.16,3.92,25.76,25.76,25.62
-8.22,2.75,3.82,21.35,21.35,21.35
-8.48,2.95,3.71,15.26,15.26,15.26
-8.5,2.96,3.57,9.66,9.03,9.03
-8.52,2.85,3.15,8.47,8.47,8.47
-8.43,2.49,2.97,6.93,6.93,6.51
-8.02,1.9,2.85,1.89,1.89,0.42
-7.98,1.45,2.99,-2.87,-2.87,-2.87
-8.42,1.89,2.7,0.14,0.14,0.14
-8.13,1.77,2.34,4.9,4.9,4.9
-7.9,1.59,2.16,7.49,8.05,8.05
-8.5,1.79,2.48,9.38,9.38,9.38
-9.04,1.95,2.47,11.48,11.48,11.48
-9.09,1.65,2.31,14.14,14.14,14.14
-9.31,1.31,2.08,16.38,16.38,16.38
-9.68,1.28,2.5,18.76,18.76,18.9
-9.98,1.63,2.52,21.07,21.07,21.07
-9.95,1.7,2.43,22.96,22.96,22.96
-9.84,1.43,2.48,23.31,23.17,23.17
-9.87,1.12,2.74,22.54,22.54,22.33
-10.03,1.42,2.93,23.03,23.03,23.17
-9.8,1.8,2.73,23.73,23.73,23.73
-9.37,1.79,2.48,21.91,21.91,21.91
-9.35,1.58,2.52,18.2,16.17,16.17
-9.61,1.11,2.63,12.6,11.55,10.99
-9.88,1.16,2.64,9.31,9.31,8.75
-9.9,1.31,2.46,7.56,7.56,7.42
-9.53,1.3,2.23,4.83,4.83,4.2
-9.72,1.07,2.19,-6.16,-6.16,-7.14
-10.12,1.12,2.51,-7.7,-7.7,-7.7
-10.12,1.11,2.15,-4.62,-4.2,-4.2
-9.84,1.1,1.88,-3.08,-2.87,-2.87
-9.75,1.07,1.94,-3.57,-3.64,-3.85
-9.82,0.8,2.18,-3.99,-3.78,-3.5
-10.16,0.85,2.23,-0.7,0.98,0.98
-9.96,0.77,2.01,4.27,4.27,4.27
-9.66,0.6,1.95,5.88,5.88,5.88
-9.65,0.74,2.42,6.65,6.65,6.65
-9.83,1,2.78,7.28,7.49,7.49
-9.94,1.18,2.85,8.33,8.33,8.61
-9.75,1.07,2.77,8.82,8.89,8.61
-9.61,1,2.77,7.07,6.86,6.86
-9.83,1,3.13,3.99,3.99,3.99
-9.89,0.76,3,1.54,1.4,1.4
-9.79,0.5,2.78,0.7,0.63,0.63
-9.74,0.16,2.66,0.21,0.14,-0.35
-9.67,-0.2,2.65,-1.05,-1.33,-1.47
-9.4,-0.31,2.49,-1.19,-1.05,-1.05
-9.11,-0.05,2.51,0.7,0.98,0.98
-9.15,0.32,2.56,2.66,2.73,2.73
-9.38,0.56,2.7,2.59,2.59,2.52
-9.63,0.69,2.69,1.82,1.82,1.82
-9.75,0.57,2.57,1.19,1.19,1.33
-10.21,0.86,2.77,4.34,4.34,4.34
-10.44,1.05,2.69,3.85,3.85,3.85
-10.45,0.97,2.57,2.45,1.89,1.89
-10.26,0.56,2.35,1.19,1.19,1.19
-10.13,0.12,2.18,3.29,3.29,4.27
-10.05,-0.12,1.99,7.63,7.63,7.63
-9.95,-0.11,1.84,10.64,10.71,10.71
-9.87,-0.38,1.81,10.85,10.85,10.92
-9.86,-0.52,1.69,13.44,13.44,13.44
-9.88,-0.56,1.48,16.8,16.8,16.8
-9.83,-0.57,1.26,18.48,18.69,18.69
-9.94,-0.63,1.13,18.9,18.9,18.83
-10.05,-0.63,1.01,18.27,18.27,17.92
-10.23,-0.45,0.86,17.01,16.94,16.94
-10.48,-0.2,0.87,14.91,14.91,14.77
-10.7,-0.04,0.94,13.02,12.39,12.11
-10.7,0,0.88,9.87,9.87,9.87
-10.48,-0.13,0.77,8.33,8.33,8.12
-10.29,-0.15,0.64,7.56,7.56,7.56
-10.23,0.16,0.61,6.51,6.51,6.51
-10.14,0.3,0.6,4.83,4.83,4.83
-10.08,0.43,0.59,2.66,2.1,2.1
-10.16,0.44,0.6,0.07,0.07,-0.49
-10.3,0.49,0.68,-2.1,-2.1,-2.1
-10.11,0.33,0.65,-2.94,-2.87,-3.15
-9.91,0.24,0.57,-2.94,-2.94,-2.73
-9.93,0.18,0.66,-2.31,-2.31,-2.17
-9.93,0.13,0.76,-0.84,-0.35,-0.14
-9.89,0.05,0.83,1.47,1.47,1.47
-9.8,0.21,0.94,3.71,3.85,3.85
-9.62,0.39,0.98,4.83,4.83,4.83
-9.41,0.58,1.09,4.83,4.83,4.83
-9.21,0.5,1.1,2.94,2.94,2.8
-9.14,0.34,1.13,1.47,1.47,1.26
-9.19,0.22,1.14,0.35,0.35,0.07
-9.35,0.23,1.25,-0.35,-0.35,-0.35
-9.42,0.31,1.23,-0.84,-0.84,-1.05
-9.43,0.31,1.22,-2.87,-2.87,-2.87
-9.62,0.28,1.21,-4.06,-4.06,-4.48
-9.89,0.37,1,-6.23,-6.16,-6.16
-9.84,0.41,0.94,-6.44,-6.58,-6.58
-10.1,0.49,0.95,-6.44,-6.23,-6.23
-10.43,0.73,0.95,-5.32,-4.9,-4.13
-10.76,1.05,0.54,-0.63,0.14,0.14
-10.82,1.45,0.29,8.68,9.59,9.59
-10.7,1.43,0.02,13.44,13.93,13.93
-10.66,1.34,-0.06,14.63,14.42,14.42
-10.69,1.22,-0.06,13.72,13.51,13.51
-10.58,1.19,-0.2,11.69,11.27,11.27
-10.6,1.43,-0.38,8.19,7.7,7.7
-10.94,1.71,-0.47,3.15,3.15,2.24
-11.13,1.87,-0.26,-6.58,-6.58,-7.7
-11.36,1.86,-0.18,-14,-14,-14
-11.28,1.67,-0.28,-20.65,-21.07,-21.07
-10.9,1.53,-0.52,-22.68,-22.82,-22.82
-10.5,1.66,-0.59,-21.91,-21.91,-21.63
-10.14,1.78,-0.54,-19.81,-19.81,-19.53
-10.12,1.76,-0.24,-17.99,-17.99,-17.99
-10.29,1.78,-0.03,-16.24,-16.24,-16.24
-10.08,1.68,0.09,-7.56,-7.56,-7.56
-10.52,1.83,0.71,-2.45,-2.45,-1.96
-10.86,2.11,0.91,2.87,2.87,2.87
-10.8,2.04,0.53,5.95,5.95,6.93
-10.68,2.08,0.27,9.03,9.03,9.03
-10.48,2.43,0,9.38,9.38,9.38
-10.41,2.71,0.1,7.49,7.49,6.37
-10.42,2.78,0.02,1.33,0.42,0.42
-10.18,2.64,0.04,-4.55,-4.55,-4.9
-9.86,2.61,0.26,-6.3,-6.3,-6.37
-9.69,2.61,0.26,-7.98,-8.89,-9.38
-9.52,2.53,0.11,-12.74,-12.74,-14.98
-9.47,2.28,0.14,-19.95,-19.95,-20.3
-9.46,1.95,0.7,-22.61,-22.61,-22.75
-9.42,1.24,0.9,-22.68,-22.47,-22.4
-9.48,0.91,0.67,-20.86,-20.86,-20.58
-9.54,1.11,0.78,-18.13,-16.87,-16.24
-9.19,1.01,0.88,-13.3,-13.3,-11.76
-9.37,0.81,0.91,-14.63,-14.49,-14.49
-8.59,0.51,0.58,-18.76,-18.76,-18.76
-8.66,0.56,0.9,-17.92,-17.92,-17.92
-8.69,0.33,1.23,-15.54,-15.12,-14.42
-8.47,0.24,0.87,-7,-6.44,-6.44
-8.51,0.38,0.9,-2.94,-2.8,-2.8
-8.58,0.65,0.68,-2.59,-2.59,-2.59
-8.62,1.47,0.67,-3.64,-3.71,-4.06
-8.33,0.88,1.13,-13.86,-15.05,-15.05
-8.48,0.65,1.19,-21.7,-22.47,-22.47
-8.6,0.81,0.97,-25.06,-25.69,-26.18
-8.79,-0.05,1.16,-27.72,-27.72,-27.79
-9.22,-0.19,1.47,-28.21,-28.21,-28.07
-9.11,-0.1,1.59,-27.3,-26.67,-26.46
-8.64,-0.37,1.42,-13.51,-12.39,-12.39
-8.98,-0.06,1.62,-6.86,-3.78,-3.78
-8.78,-0.62,1.76,0.56,0.56,0.56
-8.88,-0.89,2.04,1.75,1.89,1.89
-9.2,-0.32,2.36,4.62,4.62,4.62
-9.19,-0.1,2.26,8.61,8.61,8.61
-9.27,0.48,2.46,10.01,10.01,9.8
-9.11,1.04,2.59,8.19,8.19,7.77
-8.88,0.89,2.56,3.85,3.85,3.85
-8.94,0.26,2.34,-1.19,-1.19,-2.31
-9.11,0.12,2.23,-4.34,-4.34,-4.34
-9.46,1.34,1.8,-3.22,-3.22,-3.22
-9.25,1.23,1.63,-5.46,-6.16,-6.16
-9.41,-0.63,2.5,-22.12,-22.05,-22.05
-9.31,-0.91,2.19,-18.06,-18.06,-17.43
-8.83,-1.38,1.89,-13.3,-13.3,-12.6
-8.7,-1.82,1.72,-9.59,-9.59,-9.03
-9.34,-1.68,1.49,-4.97,-4.97,-4.34
-9.72,-1.72,1,1.54,1.54,2.73
-9.14,-1.48,1.18,11.9,11.9,13.51
-8.43,-1.36,1.41,28.63,28.63,28.63
-8.23,-1,1.29,36.54,38.99,38.99
-8.23,-0.61,1.07,45.01,46.69,46.69
-8.43,-0.38,1.31,51.87,51.87,53.62
-8.31,-0.5,1.44,57.96,57.96,57.96
-8.34,-0.31,1.54,60.55,60.76,60.76
-8.54,-0.34,1.32,59.01,59.01,58.59
-8.42,-0.11,1.69,53.48,53.48,53.48
-8.58,0.56,2.33,46.97,46.97,46.97
-8.6,0.64,2.02,39.2,39.2,39.2
-8.97,0.48,1.55,26.6,26.6,26.6
-9.23,0.41,1.46,21.28,19.81,19.81
-9.41,0.58,1.92,15.47,15.47,13.72
-9.83,0.85,2.45,6.72,5.67,5.67
-10.54,0.06,1.53,-6.16,-6.16,-6.16
-10.79,0.58,1.97,-7.49,-7.7,-7.7
-10.79,0.66,1.67,-12.39,-12.39,-12.95
-10.95,0.45,1.7,-16.03,-16.31,-16.31
-10.78,-0.12,1.4,-18.2,-18.13,-18.13
-10.71,-0.51,1.48,-16.45,-16.1,-16.1
-10.61,-0.26,1.59,-11.55,-11.55,-11.55
-10.54,0.11,1.65,3.78,3.78,3.78
-10.69,-0.03,1.71,12.11,12.11,13.3
-10.65,-0.07,1.66,18.41,20.3,21.21
-10.32,0.06,1.73,25.27,26.67,27.51
-9.85,0.3,1.69,31.29,31.29,33.46
-9.35,0.22,1.38,36.82,36.82,36.82
-9.46,-0.21,1.45,40.39,40.39,40.39
-10.17,0.2,1.66,43.4,43.4,43.4
-10.85,1.04,1.7,44.17,43.82,43.82
-11.16,1.81,1.42,38.57,38.57,38.57
-11.33,1.9,1.11,26.53,26.53,26.53
-11.73,1.68,1,20.02,17.99,17.99
-12.1,1.49,0.94,13.37,13.37,12.11
-12.17,1.61,0.83,9.31,9.31,8.54
-11.98,1.95,0.65,5.32,5.32,5.32
-11.73,2.28,0.39,-0.56,-0.56,-2.38
-11.32,2.09,0.19,-7.42,-7.42,-7.42
-10.87,1.77,0.03,-11.97,-11.97,-11.97
-10.39,1.63,0,-13.3,-13.51,-13.51
-9.75,1.41,-0.09,-13.09,-12.95,-12.53
-9.1,1.13,-0.24,-10.71,-10.29,-10.29
-8.83,1.14,-0.36,-5.74,-5.04,-3.43
-8.86,1.25,-0.41,0.84,1.75,1.75
-8.96,1.44,-0.39,8.47,9.03,9.03
-8.95,1.31,-0.42,12.53,13.09,13.09
-9.24,1.5,-0.32,16.31,16.73,16.73
-9.66,1.55,-0.23,19.32,19.6,19.6
-9.81,1.57,-0.07,21.7,21.7,21.84
-9.84,1.73,-0.06,21.63,21.28,21
-9.78,1.83,0.03,19.25,19.25,18.34
-9.91,1.81,0.12,14.98,14.98,14.35
-10.19,1.88,0.3,10.29,10.29,10.29
-10.23,2.04,0.36,7.49,6.44,6.44
-9.98,2.08,0.33,2.94,1.61,1.61
-9.6,1.82,0.36,-2.1,-2.1,-3.22
-9.47,1.64,0.35,-6.02,-6.02,-6.02
-9.33,1.44,0.41,-7.84,-7.84,-8.26
-9.12,1.29,0.39,-8.89,-8.89,-8.89
-9.08,1.4,0.26,-9.59,-9.59,-9.59
-9.22,1.31,0.36,-10.64,-10.64,-10.92
-9.58,1.31,0.5,-11.97,-11.97,-12.11
-10.01,1.33,0.61,-13.65,-13.65,-13.65
-10.09,1.23,0.56,-15.33,-15.33,-15.33
-10.05,1.34,0.45,-17.01,-17.01,-17.01
-9.89,1.57,0.24,-17.36,-17.36,-17.36
-9.87,1.87,0.1,-16.38,-16.38,-16.38
-10.08,2.04,-0.03,-13.79,-13.58,-13.58
-10.23,1.77,0.03,-13.3,-13.37,-13.37
-10.31,1.42,0.04,-14.07,-14.07,-13.93
-10.37,1.34,-0.06,-13.65,-13.65,-13.44
-10.14,1.52,-0.35,-10.08,-10.08,-10.08
-9.71,1.67,-0.49,-6.79,-6.79,-6.79
-9.44,1.52,-0.47,-5.46,-5.32,-5.32
-9.53,1.6,-0.29,-5.67,-5.67,-5.67
-10.03,1.9,0.18,-5.32,-5.04,-5.04
-10.35,2.34,0.48,-3.92,-3.85,-3.85
-10.47,2.46,0.56,-4.83,-4.83,-4.83
-10.44,2.09,0.89,-9.1,-9.66,-9.66
-10.14,1.49,0.85,-15.75,-15.75,-16.17
-9.8,0.78,0.67,-19.04,-19.04,-19.32
-9.66,0.56,0.48,-20.65,-20.65,-20.65
-9.75,0.76,0.49,-20.44,-20.3,-20.3
-9.74,0.33,0.78,-19.46,-19.46,-19.46
-9.73,-0.09,0.75,-18.55,-18.55,-18.55
-9.91,-0.52,0.83,-14.56,-14.56,-14.56
-10.39,-0.28,1.08,-6.93,-6.93,-6.93
-11.39,0.56,1.45,0.84,3.57,3.57
-11.69,1.16,1.69,10.64,10.64,12.46
-11.62,1.42,1.63,16.73,16.73,16.73
-11.36,1.23,1.39,17.85,17.85,17.85
-10.83,0.83,1.11,18.48,18.83,18.83
-10.38,0.55,0.8,19.32,19.32,19.32
-9.93,0.48,0.61,20.3,20.3,20.58
-9.36,0.22,0.23,21.35,21.42,21.49
-9.14,-0.26,0.12,21.21,21.07,20.93
-10.97,0.03,0.51,20.79,21.07,21.07
-11.13,1.66,0.82,26.6,26.6,26.6
-10.35,1.36,-0.14,23.66,23.66,23.66
-9.47,0.44,-1.13,15.19,15.19,15.19
-10.38,0.65,-0.27,9.03,7.49,7.49
-11.39,1.79,0.78,4.2,4.2,3.43
-10.61,3.17,1.11,-2.17,-2.17,-2.17
-10.48,3.41,1.13,-8.89,-8.89,-8.89
-10.58,2.82,1.3,-12.95,-14.28,-14.28
-10.57,1.99,1.25,-16.66,-16.66,-16.66
-10.16,2.18,0.71,-15.33,-15.19,-15.19
-9.41,2.29,0.46,-16.52,-16.52,-16.52
-9.35,2.01,0.3,-23.1,-23.1,-23.1
-9.76,1.55,0.78,-32.83,-32.83,-32.83
-9.8,1.23,0.86,-34.65,-34.58,-34.58
-9.48,0.69,0.39,-32.55,-32.55,-32.27
-9.01,0.22,0.05,-29.89,-29.89,-29.89
-8.82,0.06,0.49,-28.77,-28.21,-28.21
-8.82,0.01,0.89,-25.55,-25.55,-24.64
-8.48,-0.35,0.37,-19.95,-19.95,-19.95
-8.8,-0.14,0.42,-16.45,-16.45,-16.45
-9.31,-0.08,0.72,-16.59,-16.59,-16.59
-9.35,0.03,0.84,-23.03,-23.03,-23.03
-9.15,-0.05,0.47,-28.49,-28.49,-30.31
-9.49,-0.12,0.47,-35.21,-35.21,-35.21
-9.53,-0.3,0.97,-42,-42,-42
-9.04,-0.38,0.88,-45.36,-45.36,-45.36
-8.36,-1.02,0.47,-51.52,-51.52,-51.52
-8.33,-1.61,0.35,-54.81,-54.81,-54.81
-8.28,-2.23,0.59,-54.04,-54.04,-54.04
-8.23,-1.9,1.12,-46.55,-46.55,-45.15
-7.98,-1.46,1.38,-31.92,-31.92,-31.92
-7.61,-1.7,1.04,-24.36,-24.36,-24.36
-7.62,-1.99,0.93,-16.59,-16.59,-16.59
-8.17,-1.99,1.02,-9.38,-6.44,-6.44
-8.48,-1.56,1.32,2.8,5.46,5.46
-8.71,-1.42,1.56,11.13,11.97,11.97
-8.79,-1.98,1.67,11.97,11.97,11.83
-9.47,-1.18,1.82,12.95,12.95,12.95
-9.75,-0.47,1.88,15.47,15.47,15.47
-9.45,-0.89,1.95,14.77,14.77,14.77
-9.13,-1.12,1.98,12.25,11.69,10.64
-8.93,-0.83,1.59,9.1,8.82,8.82
-9.21,0.06,1.25,7.28,6.72,6.72
-9.32,-0.22,1.54,3.15,2.59,2.59
-8.98,-0.78,0.54,-5.6,-5.6,-5.6
-9.28,-0.54,1.24,-4.06,-4.06,-4.06
-8.66,-0.53,1.25,-0.7,-0.7,-0.7
-8.36,-1.2,-0.12,6.44,6.44,7
-9.43,-0.2,0.84,10.43,10.43,10.78
-9.15,-0.63,1.06,12.04,12.04,12.04
-8.77,-0.86,0.14,14.56,14.56,14.56
-8.85,-0.7,-0.25,16.52,17.29,17.29
-9.43,0.13,0.23,19.88,20.65,20.65
-9.81,0.5,0.94,22.89,22.89,22.89
-9.79,-0.58,0.67,21.84,21.84,21.84
-9.57,-0.83,0.65,20.79,21.07,21.07
-9.65,0.02,0.8,24.22,24.71,24.71
-9.28,-0.07,0.51,26.32,26.39,26.39
-9.1,-0.24,0.8,25.27,25.13,25.13
-9.3,0.14,1.19,24.92,24.92,25.34
-9.22,-0.07,0.78,26.95,27.37,27.65
-9.32,-0.09,0.57,28.49,28.49,28.21
-9.59,0.17,1.05,26.88,26.88,26.39
-10.17,0.55,1.4,21.21,21.21,20.65
-10.13,0.44,0.76,16.52,16.52,15.89
-9.84,0.13,0.43,13.65,13.65,12.25
-9.86,0.39,0.78,10.08,10.08,9.66
-10.1,0.54,0.93,6.02,6.02,5.6
-10.29,0.38,0.91,3.5,3.5,3.5
-10.51,-0.03,1,0.07,0.07,0.07
-10.49,0.01,1.2,0.98,0.98,0.98
-10.06,0.43,1.17,4.83,4.83,4.83
-9.38,0.56,0.77,8.33,8.33,8.33
-9.36,0.58,0.71,8.89,8.61,8.61
-10.01,0.4,0.92,7.42,7.42,7.14
-10.36,0.33,1.22,6.93,6.93,6.93
-9.78,0.92,1.06,10.43,10.43,10.43
-9.25,0.61,1.14,7.42,7.42,7.42
-9.35,0.13,1.07,5.04,4.69,4.69
-9.81,-0.19,1.52,5.53,5.53,5.95
-10.31,-0.18,1.69,8.4,9.45,9.94
-10.5,0,1.67,12.11,12.18,12.18
-10.45,0.39,1.59,11.97,11.69,11.69
-12.23,0.6,1.58,10.29,10.29,10.36
-11.45,0.65,1.53,10.99,10.99,11.27
-11.56,0.72,1.64,13.23,13.23,13.23
-11.62,0.85,1.53,14.42,14.7,14.7
-11.56,0.96,1.53,15.89,15.89,16.03
-11.48,0.58,1.37,17.43,17.43,17.43
-11.63,0.56,1.34,20.93,20.93,20.93
-11.31,0.69,1.11,23.31,23.31,23.52
-10.93,1,1.14,23.73,23.73,23.73
-10.62,1.16,1.25,21.35,21.35,21.35
-10.6,1.15,1.23,19.46,19.46,19.46
-10.38,1.16,1.2,18.34,17.85,17.85
-10.23,1.33,1,16.38,16.38,15.96
-10.03,1.79,0.84,14.21,14.21,14.21
-9.78,2.02,0.73,10.15,10.15,8.82
-9.79,2.07,0.72,4.69,3.78,1.96
-9.87,2.07,0.78,-3.92,-3.92,-3.92
-9.66,1.96,0.79,-10.15,-12.46,-12.46
-9.31,1.85,0.54,-15.26,-15.68,-16.45
-9.09,1.89,0.22,-17.36,-17.5,-17.5
-9.13,1.95,0.02,-17.15,-17.15,-17.15
-9.3,1.9,0.02,-17.08,-17.36,-17.36
-9.62,1.76,0.14,-17.99,-17.92,-17.92
-9.8,1.6,0.05,-17.36,-17.01,-17.01
-9.81,1.41,-0.01,-15.33,-14.98,-14.98
-9.69,1.45,-0.03,-13.72,-13.65,-13.65
-10.29,2.47,0.37,-13.37,-13.37,-13.37
-10.68,2.72,0.38,-12.18,-11.97,-11.97
-10.67,2.55,0.42,-10.85,-10.85,-10.85
-10.51,2.46,0.34,-11.41,-11.41,-11.41
-10.59,2.33,0.54,-14.91,-14.91,-14.91
-10.44,2.07,0.66,-18.06,-19.25,-19.25
-10.24,1.68,0.55,-22.61,-23.45,-23.45
-10.07,1.63,0.45,-24.92,-24.92,-25.41
-10.2,1.63,0.02,-27.23,-27.23,-27.23
-10.3,1.65,-0.17,-29.12,-29.12,-29.12
-10.33,1.9,0.08,-29.54,-29.54,-29.54
-10.3,2.06,0.16,-30.24,-30.87,-30.87
-10.38,2.15,-0.09,-32.83,-33.53,-33.53
-10.53,2.25,-0.25,-34.37,-34.37,-34.37
-10.74,2.51,0.18,-32.2,-32.2,-32.2
-10.94,2.77,0.56,-29.96,-29.96,-29.54
-11.1,2.78,0.72,-28.14,-28.14,-28.14
-11.2,2.52,0.8,-26.53,-26.53,-26.53
-11.36,2.42,1.05,-24.01,-24.01,-24.01
-11.27,2.25,1.21,-21.28,-21.28,-21.28
-10.85,2.12,1.15,-19.39,-19.39,-19.39
-10.32,1.88,1.13,-18.34,-18.34,-17.92
-9.99,1.71,1.12,-16.8,-16.8,-16.1
-9.92,1.51,1.24,-13.37,-13.37,-11.97
-9.95,1.51,1.72,-7.35,-6.23,-6.23
-9.63,2.12,2.24,5.04,6.16,6.16
-9.31,3.04,2.38,12.6,12.6,12.6
-8.97,2.96,2.33,12.11,11.69,11.69
-9.04,2.97,2.65,10.78,10.78,10.43
-9.16,2.77,2.89,9.31,9.31,9.31
-9.38,2.62,3.22,7.35,7.35,7.35
-8.75,2.42,2.67,7.49,7.84,7.84
-8.44,3.01,2.46,11.69,11.69,11.9
-8.84,3.35,2.82,12.18,11.48,11.06
-9.34,3.03,3.15,7.21,7.21,6.3
-9.62,2.79,3.15,-0.84,-0.84,-1.19
-10.03,3.16,3.08,-3.64,-3.64,-3.99
-10.65,3.54,3.49,-6.86,-7.56,-7.56
-11.01,3.59,3.44,-15.96,-15.96,-16.94
-10.76,3.46,3.05,-21.84,-21.84,-22.47
-9.54,2.96,2.6,-28.21,-28.21,-28.21
-8.57,2.52,2.41,-27.23,-27.02,-27.02
-7.36,2.26,2.25,-25.69,-25.27,-25.27
-7.11,2.26,2.27,-21.63,-21.63,-21.63
-6.73,1.86,2.52,-16.73,-16.73,-16.73
-5.77,1.44,2.86,-14.42,-13.93,-13.93
-5.54,1.89,2.67,-13.23,-13.23,-13.23
-5.88,2.5,2.42,-15.4,-15.4,-15.4
-5.53,1.71,2.63,-18.76,-20.3,-20.3
-5.8,1,2.76,-23.24,-23.17,-23.17
-6.51,1.24,2.34,-18.83,-18.83,-16.24
-6.97,1.33,1.71,-5.81,-4.41,-4.41
-7.37,1.51,1.66,7.7,7.7,8.96
-7.78,2.13,1.03,16.31,16.31,17.43
-7.61,2.13,0.89,23.03,23.03,23.03
-7.93,1.97,1.5,23.52,23.52,23.52
-8.4,2.29,1.34,23.8,23.8,24.08
-8.98,3.01,1.11,24.57,24.71,24.71
-9,3.2,1.23,24.99,24.99,24.78
-8.81,3.31,1.49,24.71,24.71,24.71
-8.52,3.35,1.04,23.45,23.1,23.1
-8.51,3.48,0.98,19.67,19.67,19.67
-9.02,3.63,1.57,16.87,16.87,16.87
-9.21,3.54,2.17,14.91,14.42,14.42
-9.06,3.45,2.08,11.76,10.92,10.43
-9,3.43,1.77,8.05,7.28,7.14
-8.93,3.54,2.01,6.23,6.3,6.3
-8.99,3.55,2.74,6.02,6.02,6.02
-8.85,3.43,2.95,3.57,3.22,3.22
-8.9,3.67,2.16,1.12,0.77,0.77
-8.98,3.87,2.21,0.98,0.98,0.91
-8.82,3.46,2.88,-0.98,-0.98,-1.4
-8.93,3.15,3.33,-6.02,-6.02,-7.21
-8.64,2.85,3.73,-10.29,-10.29,-10.29
-8.37,2.46,3.96,-14.14,-14.14,-14.14
-7.92,1.99,3.88,-15.89,-15.89,-15.89
-7.17,1.84,4.13,-6.72,-6.72,-6.72
-6.49,1.68,3.87,-3.01,-3.01,-3.01
-6.58,2.13,3.64,2.73,2.73,2.73
-6.7,2.32,3.66,9.59,9.59,9.59
-7.12,2.23,3.67,11.13,10.99,10.99
-7.57,1.73,3.5,7.7,7.7,7.7
-8.3,2.09,3.21,7.35,7.56,7.56
-8.59,2.39,2.72,8.75,8.96,8.96
-8.57,2.37,2.22,8.4,8.4,7.28
-8.56,2.5,1.87,5.18,5.18,4.69
-8.76,2.24,1.79,1.54,1.54,1.4
-9.08,2.14,1.2,1.4,1.4,1.54
-9.6,2.24,0.69,5.11,5.11,5.88
-9.4,2.32,0.53,11.62,11.62,12.32
-9.15,2.61,0.82,15.19,15.19,15.4
-9.36,3.12,1.04,14.98,14.98,14.77
-9.36,2.88,0.7,14.49,14.28,14.35
-9.51,2.4,0.31,14.49,14.49,14.56
-9.58,1.77,0.2,14.98,14.98,15.19
-9.7,1.87,0.9,16.87,16.87,16.87
-9.73,2.08,1.17,18.13,18.2,18.2
-9.67,2.22,0.47,17.29,16.66,16.66
-9.82,2.3,0.02,14.49,14.35,14.35
-10.08,2.26,0.56,12.53,12.53,12.39
-10.15,1.98,0.82,11.9,11.83,11.76
-9.92,1.47,0.8,11.97,11.97,12.32
-9.91,1.57,0.45,13.79,13.79,13.79
-10.15,1.79,0.91,15.19,15.26,15.26
-10.16,1.87,1.61,10.43,10.43,9.87
-9.68,1.56,1.35,6.23,6.23,6.23
-9.74,1.39,1.51,1.61,1.61,1.61
-9.81,1.25,1.79,-1.75,-1.75,-2.24
-10.24,1.44,1.9,-9.73,-9.73,-9.73
-10.1,1.37,2.04,-9.1,-8.89,-8.89
-10.05,1.43,1.96,-9.24,-9.24,-9.24
-10.09,1.53,1.79,-11.34,-11.34,-11.62
-10.05,1.56,1.63,-15.54,-15.19,-15.19
-9.65,1.49,1.34,-12.81,-12.81,-12.39
-9.59,1.43,1.16,-10.08,-10.08,-9.59
-10.16,1.35,1.04,-6.65,-6.65,-6.65
-10.56,1.19,1.03,-4.27,-3.22,-3.22
-10.88,1.25,1.06,0.28,0.28,1.54
-11.07,1.47,0.62,5.18,5.18,5.18
-10.91,1.53,0.21,6.79,6.79,6.79
-10.94,1.37,-0.05,7.35,7.35,7.35
-11.49,1,-0.22,7.49,7.49,7.49
-11.79,0.67,-0.34,7.98,8.05,8.05
-11.74,0.55,-0.35,8.54,8.54,8.54
-11.46,0.57,-0.56,9.1,9.1,9.1
-11.16,0.66,-0.59,9.66,9.66,9.8
-10.96,0.6,-0.49,10.08,10.08,10.01
-10.74,0.44,-0.39,10.43,10.57,10.57
-10.62,0.29,-0.27,11.9,11.9,12.11
-10.49,0.14,-0.32,12.81,12.81,13.09
-10.17,0.19,-0.43,13.51,13.51,13.51
-9.98,0.22,-0.52,13.16,13.16,13.16
-10.15,0.09,-0.44,12.18,12.18,11.76
-10.43,-0.04,-0.22,10.08,9.87,9.87
-10.55,0.01,-0.11,6.09,6.09,6.09
-10.8,0.22,-0.04,-0.42,-0.42,-1.4
-10.93,0.29,0.08,-7.7,-8.75,-8.75
-10.95,0.23,0.26,-16.94,-16.94,-17.78
-10.79,0.15,0.28,-22.12,-23.73,-24.71
-10.4,-0.09,0.1,-28.49,-28.49,-30.31
-10.25,-0.16,0.02,-32.2,-32.2,-32.9
-10.28,-0.08,0.29,-34.02,-34.02,-34.09
-10.43,-0.04,0.47,-35.7,-35.7,-35.98
-10.57,-0.23,0.56,-36.75,-36.75,-36.75
-10.61,-0.36,0.45,-34.72,-34.72,-34.3
-10.68,-0.3,0.41,-28.07,-28.07,-28.07
-10.84,0.04,0.5,-22.75,-20.93,-20.93
-11.02,0.42,0.5,-16.8,-16.8,-15.82
-11.26,0.69,0.53,-15.33,-15.33,-15.33
-11.49,0.53,0.51,-17.57,-17.57,-17.57
-11.44,0.43,0.22,-17.57,-16.66,-16.66
-10.85,0.73,-0.01,-11.06,-11.06,-10.08
-10.43,1.01,-0.09,-4.55,-4.55,-4.13
-10.45,1.21,0.14,-3.78,-4.34,-4.34
-10.37,0.95,0.32,-5.67,-5.67,-5.88
-10.32,0.82,-0.13,-3.36,-3.36,-3.36
-9.74,1.19,-0.51,2.59,3.36,3.36
-9.28,1.66,-0.67,5.46,5.46,5.46
-9.52,1.63,-0.39,1.05,0.28,0.28
-9.93,1.37,-0.23,-4.2,-6.51,-6.51
-10.19,1.46,-0.09,-8.89,-9.03,-9.17
-9.54,1.82,-0.17,-7,-7,-6.44
-8.94,2.13,-0.2,-4.69,-4.69,-4.69
-9.08,2.78,0.17,-8.26,-8.89,-8.89
-9.27,3.09,0.02,-12.18,-12.18,-12.18
-8.27,3.28,-0.64,-8.26,-7.84,-7.49
-8.18,3.3,-0.52,-7.7,-7.98,-8.54
-8.43,3.27,0.23,-10.43,-10.78,-10.78
-8.83,3.41,0.37,-16.1,-16.1,-16.8
-8.85,3.79,0.14,-21.56,-21.56,-21.56
-8.64,3.75,0.18,-25.76,-25.76,-26.32
-8.88,3.59,0.47,-32.27,-32.27,-32.27
-9.32,3.78,0.5,-41.58,-41.58,-41.58
-9.34,4.08,0.11,-45.85,-46.48,-46.48
-9.12,3.81,0.14,-53.27,-53.27,-54.04
-8.91,2.6,1.07,-58.24,-58.24,-60.48
-8.55,1.54,2.26,-62.79,-62.79,-62.93
-8.26,0.95,2.65,-60.48,-60.48,-59.85
-8.13,0.8,2.6,-54.95,-54.95,-54.95
-8,0.02,3.46,-46.48,-46.48,-46.48
-7.77,-0.25,3.46,-29.33,-26.88,-26.88
-7.4,0.33,2.72,-14.56,-7.35,-7.35
-7.48,0.89,2.34,3.22,8.4,8.4
-8.31,1.63,3.22,16.45,17.92,19.32
-6.14,3.4,3.24,20.16,20.16,19.67
-6.69,3.25,3.4,16.38,16.38,16.24
-7.04,3.89,2.51,15.54,15.54,15.19
-7.02,3.81,1.96,14.42,13.93,13.79
-7.13,3.35,1.99,12.81,12.81,12.46
-8.14,3.24,2.42,13.72,13.72,13.72
-8.34,2.85,2.99,15.47,15.47,15.47
-8.16,2.41,3.01,14.28,14.28,14.14
-8.19,2.59,2.52,12.95,12.95,12.95
-8.14,2.75,2.1,14.49,14.49,14.7
-7.94,2.42,2.23,14.84,14.84,14.91
-8.32,2.88,1.92,16.03,16.03,16.03
-8.78,3.58,0.75,20.72,20.72,20.72
-8.65,3.57,0.23,26.04,26.04,26.04
-8.6,2.93,0.79,25.62,25.62,25.62
-9.15,3.04,1.34,23.94,23.94,23.94
-9.33,3.46,1.47,24.01,24.01,23.94
-9.18,3.29,1.24,21.49,21.49,21.49
-9.18,2.84,1.63,15.89,15.89,15.89
-9.47,2.84,1.67,11.83,10.71,10.71
-9.65,3.14,1.44,8.61,8.61,7.98
-9.25,2.75,1.4,6.16,6.16,6.16
-9.26,2.1,1.58,2.94,2.94,2.94
-9.21,1.77,1.54,6.23,6.23,6.23
-8.83,1.33,1.63,10.15,10.85,10.85
-8.78,0.89,1.77,15.89,15.89,18.06
-8.89,1.1,1.81,21.56,21.56,22.47
-8.97,1.67,1.61,29.61,29.61,30.31
-8.99,1.94,1.52,33.6,33.6,33.6
-8.93,1.97,1.59,34.3,34.3,34.3
-9.19,1.98,1.61,32.9,32.9,32.9
-9.31,2.11,1.52,32.9,32.9,32.9
-9.58,2.46,1.51,34.16,34.58,34.58
-9.69,2.57,1.48,34.16,34.16,33.25
-9.91,2.9,1.45,25.9,25.9,25.9
-9.88,2.97,1.32,14.84,14.84,14.84
-9.69,2.62,1.38,6.51,6.51,6.16
-9.62,2.2,1.59,4.97,4.41,4.41
-9.35,1.95,1.58,-1.47,-1.47,-1.47
-9.08,2.02,1.07,-5.39,-5.39,-5.53
-9.16,2.1,0.89,-5.25,-4.69,-4.2
-9.45,2.04,0.94,-1.82,-1.82,-1.26
-9.75,1.68,1.18,-1.05,-1.26,-1.26
-9.66,1.5,1.13,-3.29,-3.43,-3.43
-9.78,1.56,1.18,-2.94,-2.66,-2.66
-10.02,1.53,1.2,2.24,2.24,2.87
-10.27,1.64,1.26,4.48,4.48,4.34
-10.33,1.9,1.11,0.98,0.98,0.98
-10.39,2.1,1.44,-5.67,-6.23,-6.23
-10.7,1.96,1.43,-7.84,-7.98,-7.98
-10.67,1.76,1.35,-6.44,-6.44,-6.44
-10.5,1.49,0.94,-5.25,-5.25,-5.11
-10.53,1.66,0.81,-4.13,-4.13,-4.13
-10.66,1.82,0.78,-2.31,-2.31,-2.31
-10.31,1.59,0.65,2.38,2.38,2.38
-9.88,1.28,0.56,8.05,8.05,8.05
-9.71,1.06,0.49,15.12,15.12,15.12
-9.9,0.96,0.42,20.93,20.93,20.93
-10.07,0.88,0.45,26.11,26.11,26.11
-9.91,0.64,0.55,33.04,33.04,33.04
-9.85,0.56,0.44,40.46,41.16,41.16
-10.05,0.55,0.37,44.38,44.66,44.66
-10.44,0.54,0.5,46.62,46.62,46.83
-10.46,0.37,0.61,47.81,47.81,47.81
-10.27,0.58,0.74,49.42,49.42,49.42
-10.13,0.94,0.63,50.12,50.12,50.12
-10.28,0.91,0.6,45.5,45.5,45.5
-10.68,0.89,0.87,41.65,41.65,41.65
-10.84,0.87,0.87,35,35,35
-10.85,1.01,0.89,29.96,29.96,29.96
-10.61,1.08,0.78,24.64,24.64,24.64
-10.36,0.93,0.94,16.24,15.33,15.33
-10.51,0.62,1.5,1.61,0.77,0.77
-10.47,0.58,1.58,-4.2,-7.35,-7.35
-10.02,0.42,1.68,-15.05,-15.05,-15.05
-9.72,0.35,1.81,-23.03,-23.03,-23.03
-9.66,0.3,2.1,-29.96,-30.59,-30.59
-9.49,0.19,2.26,-33.81,-34.37,-34.37
-9.33,-0.05,2.34,-38.64,-38.64,-38.99
-9.06,-0.39,2.47,-40.81,-41.51,-41.79
-8.77,-0.64,2.41,-42.35,-42.35,-42.35
-8.53,-0.65,2.29,-41.72,-41.72,-41.51
-8.17,-0.98,2.26,-39.76,-39.76,-39.41
-8.02,-1.07,2.39,-36.47,-36.47,-35.98
-8.09,-1.17,2.37,-33.6,-32.76,-32.34
-8.54,-1.07,2.57,-30.66,-30.66,-30.03
-8.99,-0.96,2.57,-29.19,-29.19,-28.63
-8.62,-0.78,1.71,-16.94,-16.94,-16.94
-9.75,-0.62,1.74,-19.95,-19.95,-20.44
-10.17,-1.5,1.82,-21.14,-20.86,-20.86
-10.65,-2.27,1.79,-18.34,-17.78,-17.78
-10.81,-2.6,1.88,-14.07,-14.07,-14.07
-9.97,-3.04,1.23,-2.38,-2.38,-1.4
-9.84,-2.7,1.06,8.75,8.75,8.75
-9.74,-2.46,1.05,16.38,16.38,16.38
-9.73,-2.05,0.96,21.56,21.56,21.56
-9.57,-1.68,0.86,24.57,25.55,25.55
-9.37,-1.41,0.75,27.72,28.42,28.42
-9.47,-1.27,0.68,30.1,30.73,30.73
-9.45,-0.7,0.44,38.08,38.08,37.8
-9.49,-0.74,0.27,36.75,36.75,36.47
-9.89,-0.79,0.37,33.81,33.81,33.6
-10.05,-0.96,0.35,31.36,30.31,29.82
-10.24,-1.13,0.36,26.53,26.53,24.43
-10.42,-1.4,0.53,14.63,14.63,14.07
-8.86,0.67,-2.42,-17.78,-17.78,-17.64
-8.7,0.43,-2.4,-17.01,-17.01,-16.87
-8.63,0.07,-2.57,-15.4,-15.4,-15.12
-9.14,-0.06,-2.64,-13.65,-13.65,-13.65
-9.69,-0.17,-2.9,-13.16,-13.16,-13.16
-10.24,0.03,-3.03,-13.93,-14.28,-14.28
-10.02,0.11,-3.09,-15.96,-16.17,-16.17
-9.38,-0.22,-3.21,-16.24,-16.24,-16.17
-9.53,-0.18,-3.19,-13.72,-13.72,-13.23
-10.02,-0.19,-3.03,-9.59,-9.59,-9.17
-10.03,-0.29,-2.82,-6.16,-6.16,-5.67
-10.1,-0.39,-2.43,-0.77,-0.77,-0.21
-10.46,-0.45,-2.25,2.73,2.73,2.73
-10.73,-0.56,-2.16,6.86,6.86,6.86
-10.98,-0.64,-1.95,11.76,12.39,12.39
-10.91,-0.61,-1.87,14.91,16.31,16.31
-11,-0.51,-1.66,18.13,18.48,18.9
-11.49,-0.24,-1.67,19.67,19.81,19.81
-11.33,0.34,-1.64,18.48,18.06,17.85
-11.51,0.46,-1.74,15.4,15.19,15.19
-11.52,0.45,-1.79,12.88,12.88,12.25
-11.98,0.27,-1.8,7.28,6.93,6.93
-12.43,0.03,-1.81,5.32,5.32,5.32
-12.58,-0.33,-1.75,3.78,3.78,3.64
-12.47,-0.6,-1.66,3.5,3.5,3.5
-12.1,-0.89,-1.56,3.85,3.85,4.13
-11.93,-1,-1.36,4.76,4.76,4.76
-11.65,-0.87,-1.13,5.39,5.39,5.39
-11.39,-0.59,-0.91,4.55,4.55,4.13
-11.05,-0.33,-0.7,2.38,2.38,2.38
-10.61,-0.12,-0.54,0.07,0.07,-17.85
-10.27,0.01,-0.16,-2.24,-2.24,-2.24
-10.4,0.24,0.18,-3.08,-3.29,-3.29
-10.58,0.37,0.65,-3.71,-3.71,-3.71
-10.68,0.37,0.79,-4.2,-4.2,-4.2
-10.69,0.31,0.77,-4.69,-4.69,-4.69
-10.72,0.21,0.77,-5.32,-5.32,-5.32
-10.75,0.12,0.83,-5.46,-5.46,-5.46
-10.84,0.07,0.71,-5.04,-5.04,-5.04
-10.88,-0.04,0.5,-4.62,-4.62,-4.62
-10.93,-0.16,0.1,-4.06,-4.06,-4.06
-10.88,-0.26,-0.31,-4.27,-4.27,-4.27
-10.62,-0.47,-0.76,-4.97,-5.18,-5.18
-10.46,-0.66,-1.01,-6.23,-6.23,-6.44
-10.43,-0.92,-1.17,-6.79,-6.86,-6.72
-10.78,-1.07,-1.42,-6.79,-6.72,-6.79
-10.32,-1.22,-1.84,-7.42,-7.42,-7.42
-10.12,-1.28,-1.82,-5.95,-5.46,-5.46
-9.59,-1.34,-1.81,-2.73,-2.73,-1.68
-9.14,-1.41,-1.58,3.29,3.29,3.29
-9.63,-1.37,-1.34,9.45,9.45,9.45
-9.63,-1.43,-1.17,14.42,15.96,15.96
-9.5,-1.38,-1.01,20.86,20.86,22.54
-9.07,-1.46,-0.94,27.86,27.86,27.86
-8.39,-1.62,-1.04,37.94,37.94,37.94
-7.97,-1.7,-1.08,44.73,47.11,47.11
-7.79,-1.73,-1.02,71.26,54.6,57.33
-7.75,-1.72,-0.98,66.99,68.46,68.46
-7.69,-1.77,-0.9,77.91,77.91,81.69
-7.55,-1.88,-0.79,90.37,90.37,90.37
-7.69,-1.73,-0.65,99.47,99.47,100.45
-8.21,-1.35,-0.4,106.33,106.33,107.66
-8.33,-0.87,-0.3,110.53,110.53,110.53
-7.84,-0.47,-0.53,110.81,110.81,110.81
-7.43,-0.18,-0.63,107.87,107.87,107.17
-7.42,0.14,-0.73,97.93,97.93,97.93
-7.42,0.22,-0.83,88.13,88.13,88.13
-7.4,0.16,-0.97,76.72,76.72,76.72
-7.4,0.04,-0.95,58.24,58.24,58.24
-7.72,0.21,-0.95,45.78,43.75,43.75
-8.04,0.5,-0.97,28.28,28.28,25.97
-8.21,0.76,-1.05,9.66,7.21,7.21
-8.71,1.21,-0.96,-15.05,-15.05,-17.71
-9.38,1.57,-1,-30.52,-35.7,-38.29
-9.56,1.15,-1.48,-71.19,-73.22,-73.22
-9.7,0.8,-1.8,-85.33,-86.66,-86.66
-9.38,0.11,-1.99,-95.62,-95.62,-96.11
-9.14,-0.57,-2.08,-97.93,-97.93,-98
-7.01,-2.58,-2.31,-76.58,-76.58,-76.58
-7.16,-2.53,-2.24,-60.97,-60.97,-60.97
-6.97,-2.57,-2.23,-51.52,-48.3,-48.3
-6.75,-2.71,-2.24,-39.76,-39.76,-37.24
-7.65,-2.21,-2.21,-30.31,-30.31,-30.31
-8.34,-1.6,-2.16,-21.91,-21.91,-21.91
-8.65,-1.4,-2.07,-18.2,-18.2,-18.2
-8.81,-1.3,-2.05,-17.36,-17.36,-17.43
-9.23,-1.02,-2.07,-18.69,-18.69,-18.69
-9.37,-0.94,-2.04,-20.93,-20.93,-20.93
-9.48,-0.97,-2.1,-22.61,-23.17,-23.17
-9.44,-1.1,-2.09,-24.57,-24.57,-25.13
-9.35,-1.25,-1.98,-25.83,-25.83,-25.83
-9.69,-1.24,-2,-25.97,-25.97,-25.97
-10.11,-1.22,-2.01,-25.9,-25.83,-25.83
-9.77,-1.53,-1.85,-24.99,-24.5,-24.5
-9.77,-1.54,-1.71,-22.61,-22.61,-21.84
-9.41,-1.55,-1.55,-17.43,-17.43,-17.43
-9.54,-1.19,-1.6,-15.19,-15.19,-15.19
-9.36,-1.12,-1.53,-13.23,-13.23,-13.23
-9.46,-1.1,-1.43,-11.06,-11.06,-11.06
-10.26,-1.19,-1.41,-9.31,-8.75,-8.75
-10.49,-1.24,-1.44,-6.44,-6.44,-5.6
-10.21,-1.27,-1.4,-1.68,-1.68,-1.68
-10.64,-1.33,-1.54,4.69,5.46,5.46
-10.64,-1.34,-1.53,7.42,8.12,8.12
-10.68,-1.29,-1.65,10.36,10.36,10.36
-10.78,-1.14,-1.87,12.88,12.88,12.88
-10.46,-0.9,-1.95,13.23,13.23,13.16
-10.3,-0.76,-2.02,12.39,12.39,12.39
-10.51,-0.68,-2.2,11.76,11.76,11.76
-10.99,-0.78,-2.12,10.99,10.85,10.85
-10.92,-0.94,-2.12,10.64,10.64,10.64
-10.52,-1.1,-2.16,10.85,10.85,10.85
-10.58,-1.18,-2.13,10.99,10.99,10.99
-10.76,-1.51,-2.12,10.36,10.36,10.36
-10.74,-1.59,-2.1,10.15,10.15,10.15
-10.61,-1.6,-2.02,10.36,10.36,10.36
-10.66,-1.57,-2,10.78,10.78,10.78
-10.76,-1.55,-2.01,10.78,10.78,10.78
-10.85,-1.37,-2.05,9.52,9.52,9.31
-11.24,-1.21,-2.08,8.19,7.7,7.7
-11.56,-1.1,-2.11,5.53,5.18,5.18
-11.78,-1.16,-2.08,-4.2,-4.2,-4.2
-11.47,-1.25,-2,-6.79,-7.14,-7.14
-11.12,-1.26,-1.85,-10.64,-10.64,-11.06
