aX,aY,aZ,gX,gY,gZ
1.02,-4.49,9.19,1.26,1.26,3.15
1.24,-4.38,9.26,9.31,9.31,9.31
1.25,-3.82,9.18,17.64,17.64,17.64
1.19,-3.39,9.1,21.63,21.63,21.63
1.14,-3.12,9.15,24.57,24.78,24.78
1.23,-3.05,9.09,24.99,24.85,24.85
1.06,-2.83,8.94,24.43,24.08,23.94
0.62,-2.52,8.47,23.17,23.17,23.17
0.71,-2.63,8.11,24.85,24.85,24.85
0.78,-3.02,8.31,29.82,29.82,29.82
0.37,-3.02,8.24,31.43,31.71,31.71
-0.27,-3.1,8.15,31.92,31.92,31.85
-0.42,-3.19,8.11,33.18,33.18,33.18
-0.24,-3.39,8.68,40.6,40.6,40.6
-0.76,-3.15,8.99,43.82,43.82,43.82
-1.64,-2.81,9.33,42.49,42.49,42.49
-2.11,-2.39,9.56,36.12,36.12,36.12
-1.94,-2.39,9.76,34.02,33.81,33.81
-1.89,-2.14,10.07,31.15,31.15,31.15
-2.43,-1.84,10.45,24.36,24.36,24.36
-3.61,-1.49,10.6,11.9,11.9,11.9
-3.93,-1.41,10.69,2.31,-0.28,-0.28
-3.09,-1.95,10.69,-4.62,-4.97,-4.97
-1.79,-2.79,11.12,-2.38,-2.38,-2.38
-1.46,-2.92,11.05,0.14,0.14,0.14
-1.38,-2.76,10.72,0.14,0.21,0.21
-1.14,-2.55,10.56,-0.7,-0.84,-0.84
-1.29,-2.21,10.35,-1.75,-1.89,-1.89
-1.62,-1.71,9.98,-5.88,-5.88,-6.09
-1.57,-1.6,9.95,-7.91,-8.82,-8.82
-1.42,-1.61,9.91,-11.76,-11.76,-12.81
-1.17,-1.77,9.84,-15.05,-15.05,-15.05
-0.76,-2.06,9.58,-15.19,-15.19,-15.19
-0.39,-2.43,9.49,-11.48,-11.48,-11.48
-0.29,-2.53,9.48,-7.63,-7.14,-7.14
-0.54,-2.47,9.32,-5.88,-5.88,-5.88
-0.75,-2.4,9.36,-7.35,-7.35,-7.56
-0.86,-2.34,9.24,-9.17,-9.17,-9.31
-0.61,-2.51,9.27,-9.17,-9.17,-9.17
-0.49,-2.65,9.39,-6.51,-6.51,-6.51
-0.58,-2.64,9.44,-5.74,-5.74,-5.74
-0.59,-2.68,9.52,-5.18,-5.18,-5.18
-0.57,-2.73,9.61,-4.27,-4.27,-3.92
-0.54,-2.78,9.59,-1.19,-0.28,-0.28
-0.6,-2.78,9.59,2.03,2.03,2.66
-0.76,-2.61,9.62,3.36,3.36,3.22
-0.97,-2.45,9.58,1.82,1.82,1.82
-0.97,-2.41,9.47,-0.77,-0.77,-0.77
-0.86,-2.52,9.46,-0.84,-0.84,-0.84
-0.91,-2.6,9.44,-0.28,-0.28,-0.28
-0.94,-2.64,9.43,0.49,0.49,0.49
-0.91,-2.65,9.45,0.91,0.98,0.98
-0.89,-2.74,9.45,1.26,1.75,1.75
-0.78,-2.85,9.46,2.8,3.08,3.43
-0.9,-2.71,9.5,4.06,4.27,4.48
-0.99,-2.7,9.59,4.97,5.04,5.04
-1.11,-2.63,9.64,5.81,5.95,5.95
-1.28,-2.49,9.66,6.3,6.3,6.3
-1.3,-2.39,9.71,6.37,6.58,6.58
-1.46,-2.3,9.87,6.09,6.09,6.09
-1.52,-2.28,10.06,4.55,4.41,4.41
-1.59,-2.27,10.15,3.36,3.36,3.36
-1.59,-2.13,10.16,2.24,2.17,2.17
-1.37,-2.24,10.19,2.31,2.31,2.52
-0.85,-2.4,10.24,4.76,4.76,5.18
-0.49,-2.42,10.22,7.7,7.7,8.05
-0.43,-2.4,10.13,10.22,10.22,10.22
-0.23,-2.28,10.03,10.99,10.99,10.99
-0.08,-2.19,8.6,12.74,12.74,12.74
0.18,-1.95,9.45,15.12,15.12,15.54
0.2,-1.7,9.1,18.83,18.83,18.83
-0.45,-1.36,8.8,17.64,17.64,17.64
-1.5,-1.19,8.45,13.72,13.72,12.18
-2.75,-1.56,8.68,0.77,-0.21,-0.21
-4.26,-0.99,8.76,-9.8,-11.76,-11.76
-4.52,-1.14,9.26,-29.89,-29.89,-31.64
-4.35,-1.87,9.49,-38.71,-40.04,-41.23
-4.22,-2.69,9.55,-45.92,-45.92,-45.99
-4.15,-3.14,9.62,-44.38,-44.38,-43.68
-4.04,-3.56,9.62,-38.85,-38.85,-37.87
-4.12,-3.72,9.53,-30.59,-28.49,-28.49
-4.4,-3.52,9.3,-21.91,-21.91,-20.93
-4.55,-3.53,9.2,-10.43,-10.43,-10.43
-4.55,-3.27,9.11,-1.19,-1.19,16.73
-4.42,-2.71,9.13,12.11,12.11,12.11
-3.81,-2.68,9.17,15.68,15.68,16.31
-2.84,-2.9,9.4,23.94,23.94,23.94
-2.34,-2.68,9.36,28.91,28.91,28.91
-2.26,-2.12,9.18,28.63,28,28
-2.05,-1.56,9.07,24.78,24.78,23.52
-1.58,-1.04,8.89,18.48,18.48,18.48
-1.06,-1.13,8.72,14.98,14.98,14.98
-0.49,-1.24,8.64,14.28,14.28,14.28
-0.31,-1.57,8.45,17.78,17.78,17.78
-0.76,-1.7,8.04,22.82,22.82,22.82
-1.65,-1.55,7.33,30.17,30.17,30.17
-2.58,-1.42,6.41,38.43,39.55,39.55
-2.98,-1.82,6.12,46.27,51.31,51.31
-2.63,-2.61,6.7,60.34,65.66,65.66
-3.02,-1.98,7.67,74.97,75.81,75.81
-3.66,-1.35,8.56,79.73,80.08,80.08
-4.52,0.02,10.68,87.71,87.99,87.99
-5.55,1.23,10.91,84.63,84.63,83.72
-6.18,2.5,11.02,73.99,73.99,72.31
-6,3.18,11,64.12,64.12,59.36
-6.03,3.43,10.9,50.75,50.75,49
-6.2,3.36,9.77,30.73,30.73,28.98
-5.82,3.05,8.97,19.88,19.88,19.32
-4.4,2.17,8.35,19.53,19.53,20.3
-2.71,1.42,7.53,35.28,35.28,35.28
-1.55,1.74,8.05,48.02,48.02,48.02
-2.01,3.24,7.74,60.27,60.27,60.27
-3,4.02,7.29,63.91,63.91,63.91
-3.29,4.21,7.43,64.54,64.47,64.47
-3.42,4.4,7.99,56.14,53.69,52.36
-3.67,4.94,7.7,44.87,44.87,40.39
-3.52,5.15,7.61,34.23,34.23,33.39
-2.86,4.97,7.67,28.07,28.07,28.07
0.66,4.8,7.69,25.41,25.41,25.41
1.44,4.91,8.19,28.7,28.98,28.98
2.01,5.36,8.42,28.91,28.56,28.35
2.84,6.19,8.73,26.39,26.39,26.39
3.78,5.64,8.83,28.07,30.52,30.52
4.1,5.28,9.24,36.4,36.4,36.4
4.27,6.3,9.26,40.74,40.74,40.74
3.85,6.99,8.87,36.68,36.68,36.68
0.42,15.27,6.24,7.63,-26.6,-26.6
4.58,0.64,9.48,3.29,3.29,3.29
4.53,2.8,9.19,4.76,5.18,5.18
4.45,5.36,9.22,1.75,0.7,0.7
4.45,7.12,8.92,-9.66,-9.66,-9.66
4.73,6.61,7.93,-8.82,-8.82,-8.82
3.7,4.01,8.09,1.89,1.89,1.89
3.11,4.15,8.74,3.99,2.87,2.87
3.52,4.98,8.94,-6.16,-13.02,-13.02
2.78,5.15,8.92,-25.48,-27.93,-32.76
1.34,5.11,8.14,-46.9,-48.3,-48.3
0.24,4.52,6.94,-53.27,-53.27,-53.27
0.28,3.32,6.14,-44.38,-44.38,-42
4.81,3.71,5.83,-23.17,-23.17,-20.79
8.35,2.56,6.64,-11.62,-9.94,-9.66
6.28,5.24,9.19,-13.72,-13.72,-18.27
3.46,2.96,10.31,-28.14,-28.14,-29.4
4.38,2.66,9.41,-36.26,-36.26,-36.68
6.18,3.68,8.34,-42.42,-43.68,-43.68
6.93,3.53,8.26,-49.7,-52.36,-52.36
4.82,1.2,8.37,-54.04,-54.04,-54.04
5.04,-0.4,9.6,-45.15,-45.15,-45.15
6.66,0,9.36,-35.63,-35.63,-35.42
4.4,1.05,9.21,-36.12,-36.12,-36.68
1.3,1.91,8.97,-37.52,-37.52,-37.52
1.1,-0.31,7.94,-26.74,-26.74,-26.74
3.48,-1.54,7.72,-13.23,-9.31,-9.31
5.04,-0.75,8.24,-3.64,-3.64,-3.78
4.42,-0.21,9.26,-7.63,-7.98,-7.98
3.19,-0.53,9.35,-5.6,-5.6,-4.9
3.1,-0.33,8.07,4.2,4.2,4.2
6.27,-0.24,8.54,5.32,5.32,5.32
7.1,0.39,9.07,2.45,0.91,0.91
6.15,0.11,9.46,-4.83,-5.67,-5.67
5.89,-0.58,9.78,-10.5,-10.5,-10.43
6.31,-1.72,10.19,-7.42,-7.42,-7
4.92,-0.32,9.67,-7.49,-7.49,-8.19
2.56,0.28,8.89,-15.12,-15.89,-15.89
3.25,-0.29,8.25,-21,-21,-21
4.25,-2.04,8.33,-16.24,-16.24,-16.24
4.74,-1.27,8.73,-17.92,-17.92,-35.84
4.4,-1.59,9.09,-22.12,-22.12,-22.12
4.05,-2.69,9.18,-14.63,-14.63,-13.3
2.56,-2.01,9.38,-7.77,-6.51,-6.23
1.43,-1.13,9.41,-5.95,-6.16,-6.3
2.18,-1.66,8.8,-6.44,-5.67,-5.25
3.63,-2.61,8.55,-1.89,-0.77,-0.42
3.59,-1.59,9.13,-1.19,-1.19,-3.29
3.74,-1.07,9.25,-8.68,-8.68,-8.68
4.71,-1.41,8.62,-12.25,-12.25,-12.25
4.3,-1.33,8.6,-15.05,-15.75,-15.75
3.62,-1.39,8.88,-17.22,-17.43,-17.43
4.44,-1.67,9.03,-17.5,-17.5,-17.57
5.25,-1.28,9.51,-19.18,-19.18,-19.18
3.37,-2.68,10.47,-17.43,-16.45,-16.45
3.13,-2.55,9.84,-9.59,-9.59,-8.26
2.99,-2.6,9.98,2.31,2.31,4.34
4,-1.28,9.85,14.42,14.42,14.42
5.89,1.28,9.91,3.57,-3.08,-3.08
6.14,2.07,10.27,-26.67,-26.67,-34.51
5.51,1.5,10.84,-53.97,-53.97,-53.97
5.48,0.41,11.36,-71.05,-71.05,-71.05
4.47,-3.58,13.5,-73.29,-73.29,-66.08
4.94,-5.73,15.45,-47.32,-47.32,-42.77
5.73,-6.37,16.09,-1.33,-1.33,3.15
7.16,-6.5,16.11,34.09,34.09,52.01
8.32,-6.32,16.12,63.21,72.52,72.52
9.64,-5.01,15.28,96.25,102.06,102.06
8.74,-3.5,13.96,113.96,113.96,113.96
5.54,-3.16,12.16,122.57,122.57,122.57
2.51,-2.6,10.86,127.96,127.96,127.96
1.39,0.83,9.18,112.07,108.08,108.08
0.31,2.32,6.94,59.01,59.01,53.06
-1.6,2.09,5.7,16.31,16.31,12.11
-3.83,1.48,5.17,-8.54,-8.54,-11.55
-4.59,1.09,5.16,-29.4,-29.4,-31.78
-4.11,-0.03,4.8,-52.15,-52.15,-52.15
-3.13,-1.73,4.58,-56.63,-55.86,-55.86
-2.29,-2.93,4.14,-47.95,-47.95,-46.62
-2.33,-3.09,3.89,-39.27,-39.27,-39.27
-2.1,-3.88,3.41,-38.85,-38.85,-38.85
-2.21,-4.75,2.99,-35.91,-33.88,-33.88
-3.07,-5.2,2.52,-23.94,-23.94,-22.33
-4.67,-5.52,2,-9.31,-9.31,-9.31
-6.2,-5.78,1.26,-4.76,-3.92,-3.92
-7.72,-6.18,0.51,-1.82,-1.47,-1.47
-9.07,-5.97,-0.09,2.31,2.31,2.31
-9.71,-5.31,-0.23,3.92,3.92,3.92
-9.55,-4.29,-0.32,-0.84,-2.24,-2.24
-8.37,-2.91,-0.92,-12.88,-21.56,-21.56
-6.83,-1.5,-1.98,-39.06,-42.91,-50.33
-5.87,-0.55,-2.76,-75.18,-78.54,-78.54
-5.6,-0.63,-2.78,-99.33,-101.64,-101.64
-4.87,-1.84,-3.52,-106.4,-104.58,-104.5
-4.06,-2.22,-3.85,-90.58,-79.59,-79.59
-3.9,-2.45,-3.8,-57.33,-52.43,-42.07
-3.85,-2.31,-3.7,-16.59,-11.55,-11.55
-4.16,-1.24,-4.88,28.14,31.71,31.71
-6.25,0,-7.08,61.11,61.67,61.67
-6.9,0.11,-7.71,61.53,60.83,60.83
-7.22,-0.06,-8.6,54.6,53.62,53.62
-7.78,-0.41,-9.23,46.76,45.85,45.85
-8.71,-0.79,-8.98,39.55,39.55,38.43
-9.83,-0.78,-8.58,24.29,24.29,22.54
-10.58,-0.31,-9.07,6.51,6.51,3.71
-10.72,0.1,-9.27,-14.49,-14.49,-17.85
-10.07,0.23,-10.15,-46.97,-46.97,-46.97
-9.35,0.1,-10.35,-63.63,-63.63,-68.6
-8.05,-0.09,-10.83,-84.98,-84.98,-87.01
-7.37,-0.22,-11.13,-101.43,-101.43,-101
-6.93,-0.21,-11.05,-108.15,-108.15,-108
-6.95,-0.37,-10.69,-109.2,-109.2,-109
-6.14,-0.9,-10.16,-103.6,-103.6,-103
-4.81,-1.62,-9.81,-86.66,-83.51,-83.51
-3.91,-1.87,-9.23,-56.56,-52.15,-52.15
-4.24,-2.3,-8.71,-19.46,-19.46,-19.46
-5.3,-2.62,-7.85,18.83,18.83,23.31
-5.83,-1.79,-7.88,51.31,51.31,54.39
-5.69,-0.57,-7.72,67.06,67.06,68.25
-4.92,0.21,-7.37,55.93,54.6,54.6
-5,0.15,-7.23,44.31,41.51,41.51
-5.38,-0.22,-6.92,33.88,31.85,31.85
-5.77,-0.52,-6.97,27.09,26.53,26.53
-5.91,-0.59,-6.87,22.4,22.4,21.84
-5.78,-0.44,-6.91,18.48,17.01,17.01
-5.05,0.42,-7.63,10.15,8.96,8.96
-4.45,0.81,-7.78,-6.09,-6.09,-7.84
-4.31,0.64,-7.93,-18.76,-18.76,-19.95
-4.81,0.45,-8.5,-25.06,-25.06,-25.27
-5.36,0.24,-8.68,-25.55,-25.55,-25.41
-5.92,-0.06,-8.77,-21.49,-21.49,-21.49
-6.2,-0.5,-8.98,-13.93,-13.93,-13.93
-6.22,-0.57,-9.29,-6.79,-4.62,-4.62
-6.03,-0.73,-9.27,1.96,1.96,1.96
-5.6,-0.51,-9.31,7.77,7.77,7.77
-4.98,-0.16,-9.53,8.19,7.84,7.84
-4.28,-0.07,-9.6,4.34,4.34,4.34
-3.85,-0.46,-9.34,-3.5,-3.5,-3.5
-3.9,-0.49,-9.36,-8.68,-9.03,-9.03
-4.02,-0.39,-9.44,-11.83,-12.25,-12.25
-4.23,-0.95,-9.06,-12.81,-12.81,-12.39
-4.28,-1.34,-9.01,-8.96,-7.07,-6.09
-4.35,-1.25,-8.92,-0.07,1.05,1.05
-4.41,-0.93,-8.76,7.42,7.42,7.7
-4.17,-0.76,-8.58,8.26,8.26,8.12
-3.63,-0.49,-8.82,5.74,5.74,5.53
-3.43,-0.2,-8.99,2.24,2.24,2.24
-3.98,-0.34,-8.7,-0.7,-0.7,-0.7
-4.04,-0.22,-8.91,-6.16,-6.16,-6.16
-3.76,0.02,-9.27,-7.98,-7.49,-7.49
-3.92,-0.11,-9.26,-4.13,-4.13,-2.17
-4.35,-0.28,-8.93,6.72,6.72,6.72
-4.57,-0.41,-8.74,13.16,13.16,14.14
-4.06,-0.27,-9.07,26.88,26.88,26.88
-3.58,0.46,-9.27,30.1,29.68,29.68
-3.43,0.84,-9.49,25.83,25.34,25.34
-3.76,0.47,-9.25,22.75,22.4,22.4
-4.21,0.22,-9.02,21.14,21.14,21.14
-4.47,0.16,-9.05,19.95,19.95,19.74
-4.7,0.35,-9.49,17.71,17.71,17.71
-4.93,0.32,-9.47,17.78,18.34,18.34
-5.6,-0.08,-8.93,20.65,20.72,20.72
-5.53,0,-8.93,21.14,21.14,21.21
-5.11,0.47,-9.27,21.35,21.35,21.42
-4.55,0.49,-8.27,14.21,14.21,14.21
-3.81,0.79,-8.45,8.54,6.65,6.65
-3.36,0.93,-8.47,1.61,1.61,0.28
-3.22,0.74,-8.44,-5.46,-5.46,-5.46
-3.26,0.64,-8.63,-13.09,-17.43,-17.43
-3.71,0.3,-8.77,-28.21,-28.21,-28.21
-4.02,-0.45,-8.89,-40.32,-41.3,-41.3
-4.31,-1.17,-9.02,-45.29,-45.29,-45.57
-4.71,-1.91,-9.4,-37.8,-37.8,-37.8
-4.9,-1.97,-9.31,-28.28,-28.28,-27.23
-4.92,-2.03,-9.15,-21.84,-21.84,-21.84
-4.68,-1.99,-9.14,-16.73,-16.73,-16.73
-4.27,-1.67,-9.33,-10.92,-10.92,-10.92
-4.03,-1.46,-9.24,-6.37,-5.81,-5.81
-3.83,-1.36,-9.04,-3.15,-3.15,-3.15
-3.56,-1.27,-8.95,-2.45,-2.45,-2.45
-3.36,-1.12,-8.92,-3.22,-3.57,-3.57
-3.44,-1.17,-8.54,-3.5,-3.5,-3.29
-3.71,-1.36,-8.07,-0.77,-0.77,-0.21
-3.7,-1.45,-7.92,4.06,4.06,4.76
-3.12,-0.79,-8.31,7.7,7.7,8.05
-2.7,-0.07,-8.71,8.33,8.33,8.33
-3.01,0.11,-8.65,4.34,4.34,4.34
-3.34,0.11,-8.84,-3.99,-4.76,-4.76
-3.77,0,-9.04,-8.26,-9.17,-9.38
-4.28,-0.46,-8.86,-8.96,-8.75,-7.63
-4.91,-1.1,-8.52,-1.26,-1.26,-0.07
-5.34,-1.29,-8.51,8.89,8.89,10.29
-5.35,-1.11,-8.8,18.48,18.48,19.46
-5.23,-0.64,-9.22,22.75,22.75,22.82
-5.14,-0.26,-9.37,20.16,20.16,19.6
-5.34,-0.38,-9.3,16.03,14.56,13.79
-5.42,-0.4,-9.36,10.5,10.5,8.96
-5.43,-0.5,-9.3,7.21,7.21,6.72
-5.39,-0.68,-9.21,7.98,8.26,8.26
-5.23,-0.73,-9.11,12.11,12.67,12.67
-5,-0.2,-9.26,14.63,14.63,14.56
-4.82,0.17,-9.15,13.16,13.16,13.16
-4.67,0.39,-8.95,8.19,8.19,8.19
-4.59,0.3,-8.7,3.29,3.29,3.29
-4.48,0.27,-8.61,4.55,5.11,5.11
-4.55,0.19,-8.2,9.03,9.03,9.03
-4.7,0.22,-7.68,12.25,12.32,12.32
-4.46,0.43,-7.69,13.3,13.44,13.44
-4.05,0.62,-7.7,14.21,14.21,13.65
-3.81,1.12,-8.19,3.85,3.85,3.85
-3.45,1.34,-8.49,-7.21,-7.21,-7.21
-3.51,0.99,-8.79,-18.9,-18.9,-18.9
-4.18,0.28,-8.82,-26.18,-26.6,-26.6
-4.81,-0.32,-8.64,-27.79,-27.79,-27.51
-5.29,-0.89,-8.6,-24.43,-24.43,-23.66
-5.6,-1.34,-8.45,-16.66,-15.54,-15.54
-5.53,-1.33,-8.92,-8.19,-8.19,-7.77
-5.25,-0.9,-9.46,-6.65,-6.65,-6.72
-5.01,-0.56,-9.7,-8.54,-9.8,-10.36
-4.9,-0.42,-9.85,-14.35,-14.35,-17.15
-4.63,-0.22,-10.15,-24.85,-24.85,-26.04
-5.08,-1.1,-8.57,-44.73,-44.59,-44.59
-4.87,-1.25,-8.05,-39.2,-39.2,-39.2
-4.32,-1.3,-7.97,-28.42,-28.42,-28.42
-3.55,-0.95,-8.21,-12.74,-12.74,-12.74
-2.82,-0.58,-8.01,4.06,4.06,4.06
-2.62,-0.18,-8.39,13.02,13.02,13.02
-2.27,0.26,-8.69,16.94,16.94,16.94
-2.09,0.61,-9.04,14.98,14.28,14.28
-2.34,0.45,-8.82,8.96,8.96,8.96
-2.67,0.29,-8.96,-3.71,-3.71,-3.71
-2.92,0.22,-9.17,-12.67,-12.67,-12.67
-3.15,0.06,-9.63,-19.46,-19.6,-19.6
-3.69,-0.32,-9.66,-18.34,-17.64,-17.64
-4.25,-0.36,-9.76,-9.45,-8.47,-8.47
-4.59,0.02,-10.05,-2.45,-1.89,-1.89
-4.82,0.52,-10.2,0.49,1.26,1.26
-5.01,0.72,-10.12,0.77,0.42,-0.28
-5.24,0.67,-9.83,-5.6,-5.67,-5.32
-5.02,0.7,-9.88,-3.57,-3.57,-2.94
-4.99,0.45,-9.33,3.5,3.5,4.2
-4.45,0.56,-9.41,7.63,7.63,7.63
-4.04,0.67,-9.41,8.61,8.61,8.61
-4.07,0.67,-9.01,6.44,6.44,6.44
-4.24,0.55,-8.25,1.75,1.19,1.19
-3.73,0.24,-8.12,-2.87,-2.87,-2.87
-2.88,0.09,-8.38,-6.37,-6.37,-6.37
-2.26,0.07,-8.55,-6.51,-6.51,-6.51
-2.5,0,-8.18,-7.63,-7.63,-8.05
-2.72,0.17,-8.29,-10.57,-11.62,-11.62
-2.47,0.54,-9.11,-15.61,-15.61,-15.61
-2.77,0.41,-9.13,-17.15,-17.08,-17.08
-3.29,-0.11,-8.91,-15.12,-15.12,-14.56
-3.82,-0.85,-11.27,31.43,31.43,31.43
-4.33,-0.76,-8.42,48.93,49.21,49.21
-3.53,0.96,-10.1,49.63,49.7,49.7
-3.9,0.51,-9.31,45.5,45.5,44.66
-3.99,0.48,-9.28,40.88,39.27,38.57
-3.72,0.67,-9.43,34.58,34.58,34.58
-3.92,0.6,-9.17,30.1,29.75,29.75
-4.26,0.27,-8.92,26.39,26.39,26.39
-4.21,0.25,-9.04,20.51,20.51,20.51
-4.07,0.28,-9.13,13.93,13.93,13.93
-3.96,0.24,-9.13,10.36,10.36,10.36
-3.95,0.32,-9.33,6.23,6.23,6.23
-3.88,0.18,-9.29,-1.12,-2.1,-2.1
-3.64,-0.03,-9.22,-5.74,-7.35,-7.35
-3.36,-0.08,-9.42,-9.31,-10.15,-10.15
-3.46,-0.25,-9.43,-10.71,-10.64,-10.57
-3.8,-0.58,-9.25,-10.08,-9.94,-9.94
-3.83,-0.67,-9.29,-8.4,-8.12,-7.42
-3.64,-0.74,-9.39,-4.83,-4.2,-4.2
-3.74,-1.15,-9.3,3.43,4.41,4.41
-4.01,-1.24,-9.2,10.92,10.92,10.92
-4.07,-0.82,-9.45,16.87,17.22,17.22
-3.93,-0.55,-9.62,16.66,16.66,16.31
-3.82,-0.56,-9.68,14.84,14.84,14.77
-4.05,-0.69,-9.66,14.56,14.56,14.63
-4.41,-0.68,-9.53,14.28,14.28,14.28
-4.89,-0.75,-9.39,12.81,12.81,12.25
-5.15,-0.98,-9.37,9.87,9.87,9.87
-5.21,-1.04,-9.93,8.47,8.19,8.19
-5.31,-0.94,-10.17,7.14,7.14,7.14
-5.77,-1,-10.17,5.39,5.32,5.32
-6.33,-1.1,-9.97,5.04,5.04,5.18
-6.48,-1.1,-9.74,6.16,6.16,6.65
-6.36,-1.32,-9.57,9.38,9.38,9.38
-6.36,-1.61,-9.43,16.1,16.1,17.08
-5.43,-0.15,-9.34,10.5,10.5,10.5
-5.51,-0.6,-9.28,3.64,3.22,3.22
-6.27,-1.91,-8.57,14.28,13.79,13.79
-6.36,-1.04,-8.8,10.36,10.36,10.36
-6.72,-1.76,-8.16,14.56,14.56,14.56
-6.35,-0.8,-8.15,3.92,5.11,5.11
-6.2,-1.85,-8.24,15.75,15.75,15.75
-6.25,-1.67,-7.88,17.15,17.57,17.57
-6.65,-2.08,-7.69,18.9,19.39,19.39
-6.61,-2.07,-7.91,20.93,20.93,20.93
-6.9,2.65,-7.95,7.63,5.04,5.04
-7.05,-2.81,-7.47,12.39,12.39,12.6
-8,-2.6,-6.92,9.1,9.1,10.22
-7.79,-1.33,-6.91,13.02,13.02,13.02
-7.65,-1.78,-7.06,13.79,13.23,13.23
-7.64,-2.12,-6.8,12.95,12.95,13.23
-7.71,-2.27,-6.62,14.07,14.07,14.07
-7.61,-1.94,-6.43,15.19,15.19,15.19
-7.06,-1.74,-6.21,16.38,16.38,16.38
-8,-2.45,-5.78,20.3,20.3,20.3
-8.14,-2.15,-5.63,24.64,25.06,25.06
-7.08,-1.55,-5.57,22.96,22.96,22.96
-6.99,-1.76,-5.32,14.42,14.42,14.42
-7.87,-2.61,-5.57,12.95,12.95,12.95
-8.32,-2.88,-5.63,11.55,11.55,11.55
-7.71,-2.54,-5.62,9.94,10.08,10.08
-8.18,-3.51,-4.91,16.59,16.59,20.3
-8.65,-4.02,-4.48,34.58,36.33,36.33
-7.94,-2.99,-4.78,42.7,42.7,42.49
-7.06,-2.4,-5.02,39.41,39.41,37.38
-6.91,-2.56,-4.56,35.91,35.91,35.14
-6.92,-2.77,-3.87,33.88,33.88,33.32
-6.79,-3.04,-3.76,31.71,31.71,31.71
-7.07,-3.85,-2.92,36.26,36.26,36.26
-7.06,-3.78,-2.51,40.6,40.6,40.6
-6.48,-3.32,-2.75,38.29,36.47,36.47
-6.19,-3.57,-2.12,31.43,31.43,30.17
-5.97,-3.79,-1.11,21.63,21.63,21.63
-6.12,-3.65,-1.49,15.33,15.33,14.07
-7.2,-4.32,-1.03,10.85,10.85,10.85
-8.05,-5.43,-1.46,14.56,14.56,16.31
-7.55,-6,-0.93,22.96,22.96,22.96
-6.89,-5.76,-1.01,32.41,32.41,32.41
-5.74,-4.94,-0.04,24.15,23.31,23.31
-6.07,-4.97,0.27,20.02,19.53,19.53
-7.17,-5.96,0.45,14.07,13.93,13.93
-7.54,-6.21,0.6,14.7,14.7,15.05
-5.64,-4.86,1.6,9.52,9.52,7.42
-4.97,-3.82,1.71,-15.05,-15.05,-15.05
-6.18,-4.61,1.78,-29.26,-29.26,-29.26
-8.77,-6.83,1.67,-29.12,-26.53,-26.53
-9.93,-8.42,1.26,-13.93,-9.24,-9.24
-9.02,-8.11,0.85,4.13,7.49,7.49
-8.57,-7.43,0.83,14.49,15.4,15.4
-8.71,-6.7,0.65,22.4,22.4,22.4
-7.79,-6.01,0.51,24.71,24.71,24.71
-6.82,-5.28,0.67,24.57,24.5,24.29
-6.72,-4.92,1.14,21.77,21.77,21.77
-7.03,-4.44,0.71,14.77,14.77,14.77
-7.46,-4.59,0.26,5.39,4.83,4.83
-7.94,-5.16,0.4,4.48,4.83,4.83
-8.87,-5.55,0.15,7.21,8.47,8.47
-9.42,-5.77,-0.15,10.01,10.01,10.08
-9.6,-5.76,-0.17,13.16,13.16,13.16
-8.24,-4.5,-0.21,10.15,10.15,9.1
-7.89,-4.24,-0.61,0.91,0.91,0.91
-8.56,-5.12,-0.32,0.35,0.35,0.35
-8.25,-5.01,-0.17,1.89,1.89,1.89
-7.88,-4.41,-0.41,-0.49,-0.49,-0.49
-8.08,-4.5,-0.84,-4.9,-4.9,-4.9
-8.3,-4.71,-0.64,-6.93,-7.07,-7.07
-8.06,-4.68,-0.09,-7.84,-7.84,-7.84
-7.67,-4.35,0.45,-9.52,-10.29,-10.29
-7.29,-3.47,-0.13,-16.87,-16.87,-16.87
-6.95,-3.18,-0.16,-24.5,-24.5,-25.76
-6.49,-3.01,-0.33,-41.16,-41.16,-41.16
-6.81,-3.34,-0.31,-54.74,-54.74,-54.74
-7.55,-3.97,-0.25,-58.38,-58.45,-58.45
-8.25,-4.78,-0.19,-57.05,-57.05,-55.93
-8.25,-5.6,-0.78,-48.65,-48.65,-48.65
-8.11,-5.69,-1.03,-40.32,-40.32,-40.32
-8.53,-5.25,-1.3,-37.17,-37.17,-37.17
-8.4,-4.69,-1.68,-36.61,-36.61,-36.61
-8.17,-4.73,-1.64,-36.96,-36.33,-36.33
-8,-5.17,-1.32,-33.11,-33.11,-31.01
-8.11,-5.04,-0.92,-24.01,-24.01,-24.01
-8.41,-4.42,-1.41,-17.43,-17.43,-17.43
-7.38,-4.32,-1.93,-23.45,-23.45,-23.45
-7.36,-4.51,-1.54,-21.49,-21.49,-20.51
-8.04,-4.43,-1.9,-12.67,-12.67,-12.67
-8.5,-4.29,-2.76,-10.5,-10.5,-10.5
-8.29,-4.46,-2.78,-10.92,-10.92,-10.92
-8.75,-4.75,-2.64,-6.93,-6.93,-6.93
-9.32,-4.32,-2.93,-0.42,0.07,0.84
-9.11,-3.33,-3.69,1.33,1.33,1.33
-13.67,3.52,-4.7,-29.75,-29.75,-32.97
-9.15,-4.98,-3.35,-19.18,-19.18,-18.41
-8.13,-4.23,-3.21,-14.21,-14.21,-14.21
-7.64,-3.12,-3.41,-13.37,-13.37,-13.37
-7.34,-2.67,-4.17,-16.73,-16.73,-16.73
-7.59,-3.17,-4.54,-21.84,-21.84,-21.84
-7.58,-3.45,-4.73,-22.89,-22.89,-22.89
-8.06,-3.52,-4.83,-21.21,-20.51,-19.32
-8.87,-3.74,-4.72,-14.07,-13.16,-13.16
-8.88,-3.83,-4.71,-6.51,-5.67,-5.67
-8.41,-3.12,-4.93,-2.87,-2.8,-3.08
-8.27,-2.22,-5.05,-6.3,-7.14,-7.14
-8.36,-1.79,-5.34,-16.59,-16.59,-18.27
-7.85,-1.56,-5.57,-31.92,-31.92,-33.67
-7.07,-1.96,-5.24,-41.02,-42.63,-42.98
-6.9,-2.57,-4.81,-41.79,-40.46,-39.62
-7.01,-2.45,-4.75,-35.98,-35.98,-35.28
-6.85,-2.04,-5.84,-38.5,-38.5,-39.41
-6.11,-2.42,-5.99,-45.01,-45.29,-45.29
-6.12,-3.04,-5.59,-41.44,-41.44,-40.32
-6.34,-2.79,-5.81,-32.48,-32.48,-31.92
-6.4,-2.46,-6.58,-32.34,-32.34,-32.34
-6.45,-2.39,-7.09,-33.39,-33.25,-33.25
-6.9,-2.82,-6.73,-27.23,-26.18,-26.18
-7.03,-2.64,-6.72,-20.37,-20.37,-20.37
-6.98,-2.18,-7.12,-16.17,-16.17,-16.17
-6.83,-1.89,-7.3,-15.96,-15.96,-15.96
-7,-1.84,-7.19,-16.31,-16.38,-16.38
-6.59,-1.19,-7.41,-18.55,-21.42,-21.42
-5.8,-0.38,-7.78,-27.51,-28.77,-31.64
-5.59,-0.48,-8.09,-37.94,-38.92,-40.32
-5.8,-1.07,-7.85,-41.65,-41.58,-41.16
-5.98,-1.28,-7.99,-38.99,-38.36,-38.36
-5.76,-0.81,-8.81,-36.19,-36.19,-36.19
-5.52,-0.97,-8.9,-35.28,-33.53,-33.53
-5.79,-3.43,-10.67,-8.33,-8.33,-8.33
-5.17,-0.8,-9.19,-4.9,-4.48,-4.48
-5.29,-0.92,-9.17,-2.31,-2.31,-1.75
-5.13,-0.79,-9.45,0.14,0.14,0.14
-4.94,-0.54,-9.61,-2.17,-2.17,-3.15
-5.2,-0.8,-9.51,-5.39,-5.39,-5.39
-5.4,-0.89,-9.42,-6.86,-6.86,-6.86
-5.21,-0.89,-9.25,-8.12,-8.12,-8.12
-4.85,-0.94,-9.32,-10.5,-10.5,-10.5
-4.89,-1.07,-9.45,-11.2,-11.2,-11.2
-4.61,-0.67,-9.58,-13.09,-13.09,-13.44
-4.03,-0.35,-9.42,-18.06,-18.06,-18.06
-3.67,-0.34,-9.01,-21.28,-21.28,-21.28
-3.71,-0.74,-8.62,-20.65,-20.65,-20.65
-3.57,-0.62,-8.69,-17.71,-17.71,-17.71
-3.49,-0.5,-8.69,-16.8,-16.45,-16.45
-3.58,-0.77,-8.63,-13.72,-13.72,-13.72
-3.48,-0.81,-9.28,-9.73,-9.73,-9.73
-2.93,-0.21,-9.82,-10.22,-10.22,-10.22
-2.78,0.22,-10.1,-15.12,-15.75,-15.75
-3.19,-0.11,-9.97,-17.92,-18.2,-18.2
-3.59,-0.75,-9.75,-14.56,-14.56,-14.56
-3.63,-0.9,-9.77,-5.95,-5.95,-5.95
-3.69,-0.91,-9.59,1.47,1.47,1.47
-3.64,-0.89,-9.31,11.41,11.41,11.41
-3.47,-0.7,-9.32,18.69,18.69,18.69
-2.69,0.11,-10.11,17.71,16.8,16.8
-2.18,0.57,-10.2,10.78,9.73,9.73
-2.52,0.3,-9.98,4.2,3.57,3.57
-2.8,-0.23,-9.63,1.12,1.12,1.12
-2.76,-0.53,-9.48,2.38,2.38,2.87
-3.01,-0.89,-9.15,8.75,8.75,8.75
-3.21,-0.98,-9.01,14.56,16.17,16.17
-2.89,-0.51,-9.33,18.69,18.41,18.41
-2.3,0.06,-9.86,15.12,15.12,13.65
-2.22,0.06,-9.94,9.8,9.8,8.68
-2.51,-0.08,-9.95,4.97,4.97,4.97
-2.43,-0.07,-10.01,0.07,-0.42,-0.42
-2.16,-0.08,-10.02,-2.87,-3.64,-3.64
-2.34,-0.51,-9.91,-2.87,-2.45,-1.4
-2.72,-0.87,-9.75,1.75,2.31,2.31
-2.72,-0.73,-9.72,7.49,7.84,7.84
-2.35,-0.51,-10.02,9.24,9.38,9.38
-2.12,-0.56,-10.67,11.83,11.83,12.6
-2.31,-0.21,-10.34,11.34,11.34,10.71
-2.41,-0.11,-10.31,7.77,6.86,6.44
-2.37,-0.1,-10.28,5.32,5.32,4.55
-2.62,-0.67,-10.36,0.14,0.14,0.35
-2.94,-1.01,-10.26,3.15,3.78,3.78
-3.02,-0.84,-10.25,8.89,8.89,8.89
-2.98,-0.89,-10.13,11.06,11.06,11.27
-2.91,-1.1,-10.26,12.74,12.74,12.81
-2.58,-0.72,-10.59,12.25,12.25,12.25
-1.96,0.06,-10.6,7.77,7.77,7.77
-2.06,-0.09,-10.88,-2.03,-2.03,-2.03
-2.68,-0.82,-11.22,-4.27,-4.27,-4.27
-3.3,-1.33,-11.05,-1.12,-0.35,-0.35
-3.94,-1.95,-10.5,6.09,6.09,7.49
-4.45,-2.44,-10.13,18.62,20.37,20.37
-4.42,-2.2,-9.92,32.76,32.76,35.35
-3.46,-0.81,-10.12,38.22,38.22,38.22
-2.71,0.29,-10.52,26.11,24.01,24.01
-2.66,-0.3,-9.91,20.72,19.67,19.67
-2.92,-0.15,-10.2,10.36,9.31,9.31
-3.5,-0.85,-9.63,5.6,5.6,5.67
-4.11,-1.27,-9.48,5.81,5.81,5.81
-4.69,-2.09,-9.19,12.74,12.74,13.65
-4.64,-2.14,-9.42,21.21,21.21,21.21
-4.45,-1.9,-9.62,24.15,24.64,24.64
-4.58,-1.91,-9.49,25.9,25.9,25.9
-4.55,-1.61,-9.35,26.74,26.74,26.74
-4.34,-1.27,-9.24,24.71,24.71,24.71
-4.56,-1.56,-9,22.75,22.75,22.68
-5.33,-2.21,-8.67,24.64,24.64,25.27
-5.66,-2.41,-8.25,32.13,32.13,33.25
-5.53,-2.08,-7.8,40.67,40.67,40.67
-5.56,-1.75,-7.79,45.01,45.01,45.01
-5.59,-1.64,-7.7,44.24,44.24,44.24
-9.25,6.88,-8.74,17.85,13.37,13.37
-5.05,-1.34,-7.7,10.78,10.5,10.5
-5.99,-2.7,-6.95,13.72,13.72,14.84
-6.44,-3.41,-6.34,25.69,27.37,27.37
-6.03,-2.99,-6.85,34.86,34.86,35.07
-5.58,-2.8,-6.76,34.23,33.53,33.32
-6,-3.12,-6.2,32.76,32.76,32.76
-6.23,-3.05,-5.57,32.27,31.99,31.99
-6.17,-3.03,-5.19,29.26,28.77,28.77
-6.36,-3.33,-5.34,21.91,21.91,21.35
-6.82,-3.72,-5.25,19.32,18.9,18.83
-7.15,-4.07,-5.28,18.62,18.76,18.76
-6.97,-4.08,-5.63,16.94,16.94,16.73
-7.56,-4.7,-5.52,18.69,18.69,18.69
-7.76,-4.82,-4.61,28,28,28
-7.3,-4.25,-4.68,37.31,37.31,37.31
-7.25,-4.23,-4.77,38.22,38.22,38.64
-6.16,-3.07,-3.77,39.69,39.69,39.69
-5.47,-2.33,-3.92,30.1,30.1,30.1
-7.01,-3.21,-4.62,-10.71,-10.71,-10.71
-6.61,-4.21,-4.03,-13.44,-13.44,-13.44
-6.86,-4.93,-3.81,-6.72,-3.78,-3.78
-7.07,-5.33,-3.91,5.74,5.74,5.74
-11.24,-0.16,-4.11,-5.88,-5.88,-5.32
-7.13,-5.62,-3.62,4.06,4.06,4.06
-8.2,-1.56,-3.04,-2.73,-2.73,-2.73
-6.68,-4.88,-3.14,-7.98,-7.98,-7.98
-7.41,-5.1,-3.49,-14,-12.95,-12.95
-8.52,-4.48,-2.73,-13.86,-13.86,-13.93
-8.69,-4.39,-3.05,-14.14,-14.14,-14.14
-8.53,-4.66,-3.36,-8.47,-8.47,-6.86
-8.67,-4.89,-3.07,-1.26,-0.91,-0.91
-8.31,-4.77,-2.93,-0.14,-0.21,-0.21
-8.25,-4.38,-2.64,-1.61,-1.61,-1.47
-7.99,-4.58,-2.44,1.47,3.08,3.78
-7.48,-4.55,-2.24,8.05,8.47,8.47
-6.55,-4.6,-2.34,10.5,10.36,10.36
-8.52,-4.35,-2.22,8.96,8.96,8.61
-6.63,-4.47,-2.4,8.54,8.54,8.82
-7.19,-4.42,-2.13,11.76,11.76,12.32
-7.26,-4.88,-1.9,17.92,17.92,17.92
-7.53,-5.26,-1.99,23.45,23.45,23.45
-8.4,-5.02,-2.43,24.92,24.92,24.92
-8.18,-5.04,-2.57,24.99,24.99,24.99
-7.92,-5.01,-2.26,24.71,24.71,24.71
-7.83,-4.91,-2.17,24.01,23.8,23.8
-7.72,-5.13,-2.09,23.59,23.59,23.52
-7.72,-5.24,-1.92,22.96,22.96,22.96
-7.56,-4.78,-1.8,20.86,20.86,20.86
-7.39,-4.07,-1.75,15.4,12.53,12.53
-7.66,-4.25,-2.64,2.59,-0.28,-0.28
-8.26,-5.5,-2.58,-4.9,-4.9,-4.97
-8.87,-5.98,-1.7,-1.19,-0.28,-0.28
-8.9,-5.6,-1.77,4.62,4.62,5.04
-8.54,-5.39,-2.71,1.61,1.61,0.84
-8.38,-5.61,-2.44,-3.57,-3.57,-3.64
-8.17,-5.69,-2,-2.94,-2.94,-1.89
-7.87,-5.16,-1.56,-0.35,-0.35,-0.28
-7.49,-5.25,-1.89,-5.81,-6.37,-6.37
-7.48,-5.54,-1.63,-5.95,-5.95,-5.46
-7.33,-5.16,-1.57,-5.11,-5.11,-5.11
-7.37,-4.85,-1.69,-7.63,-7.63,-7.63
-7.53,-5.43,-2.09,-10.92,-10.92,-10.85
-8.27,-6.32,-1.86,-7.56,-6.65,-6.65
-8.73,-6.41,-1.68,0.91,2.17,2.17
-8.74,-5.72,-1.6,10.08,10.08,10.36
-8.52,-5.27,-1.72,11.2,11.13,11.27
-8.18,-5.28,-1.57,10.78,10.78,10.22
-7.82,-4.98,-1.25,8.26,8.26,8.26
-7.78,-4.72,-1.13,3.85,3.85,3.5
-7.75,-4.94,-1.33,1.75,1.75,1.75
-7.67,-5.3,-1.09,4.27,4.27,4.27
-7.73,-5.13,-0.91,5.88,5.88,5.88
-7.78,-4.7,-0.81,4.83,4.13,4.13
-7.53,-4.33,-0.36,1.89,1.89,0.84
-6.91,-3.95,-0.25,-2.73,-2.73,-3.57
-6.43,-3.48,-0.43,-11.62,-11.62,-11.62
-6.37,-3.39,-1.4,-25.55,-25.55,-25.55
-7.03,-4.36,-1.66,-31.08,-31.71,-31.71
-7.84,-5.41,-1.31,-28.84,-28.84,-28.84
-8.57,-5.44,-1.21,-21.28,-20.44,-20.44
-8.87,-5.3,-2.06,-17.08,-17.08,-17.08
-8.72,-5.55,-2.14,-12.88,-12.04,-12.04
-8.53,-5.7,-1.68,-6.51,-5.81,-5.81
-7.96,-4.68,-1.4,-0.07,0.56,0.56
-7.63,-3.42,-2.2,-0.21,-0.21,-1.47
-7.57,-3.35,-2.57,-11.48,-11.48,-11.48
-7.03,-3.87,-2.31,-23.03,-23.03,-24.22
-7.22,-4.33,-1.76,-29.68,-29.68,-29.68
-7.82,-4.57,-2.25,-28.42,-28.42,-28.42
-8.18,-4.68,-2.92,-29.47,-29.47,-29.61
-8.11,-4.94,-2.77,-26.6,-26.6,-26.6
-8.78,-5.57,-2.31,-19.04,-15.19,-15.19
-9.04,-5.29,-2.16,0.14,0.14,0.14
-8.71,-4.53,-2.83,8.68,8.68,8.68
-7.84,-3.66,-3.19,6.23,4.62,4.62
-7.33,-3.06,-3.54,-2.59,-5.18,-5.18
-7.54,-2.72,-3.35,-14.77,-14.77,-16.17
-7.77,-2.66,-3.1,-24.15,-24.15,-24.15
-7.86,-2.81,-3.28,-27.3,-27.86,-27.86
-7.85,-2.99,-3.72,-30.24,-30.24,-31.22
-8.03,-2.82,-4.17,-32.76,-32.76,-32.76
-8.5,-2.89,-4.61,-37.24,-37.24,-37.24
-8.67,-3.05,-4.75,-37.24,-36.61,-36.61
-8.65,-3.49,-4.61,-31.85,-31.85,-29.54
-8.92,-3.89,-4.55,-21.77,-21.77,-21.77
-8.87,-3.32,-5.5,-14.91,-14.91,-14.91
-8.49,-2.85,-5.8,-15.12,-15.12,-15.12
-8.05,-2.5,-5.65,-14.56,-14.21,-14.21
-7.97,-2.59,-5.35,-12.32,-11.76,-11.76
-7.74,-2.42,-5.92,-13.09,-13.09,-14.35
-7.23,-2.19,-6.2,-17.43,-17.43,-17.92
-7.21,-2.41,-5.79,-16.87,-16.87,-16.87
-7.48,-2.47,-5.61,-13.09,-13.09,-13.09
-7.44,-2.2,-5.85,-12.67,-12.67,-12.95
-7.18,-1.87,-6.42,-17.36,-17.36,-17.36
-7.2,-2.03,-6.5,-19.81,-19.95,-19.95
-7.68,-2.4,-6.43,-18.27,-17.22,-17.22
-7.73,-2.29,-6.59,-14.21,-14.21,-14.21
-7.57,-1.88,-7.2,-16.73,-16.73,-17.22
-7.8,-2.26,-7.04,-18.62,-18.34,-18.34
-7.7,-2.49,-6.9,-11.41,-11.41,-10.57
-7.37,-2.28,-6.88,-5.67,-5.67,-5.11
-7.38,-1.97,-7.04,-0.91,-0.91,-0.91
-7.35,-1.3,-7.06,-0.42,-0.42,-0.42
-6.92,-0.54,-7.23,-3.92,-3.92,-5.95
-5.93,-0.49,-7.41,-22.33,-22.33,-23.52
-5.88,-0.44,-7.53,-27.37,-27.37,-25.69
-5.94,-0.43,-7.18,-14.49,-14.49,-14.49
-5.65,-0.57,-7.59,-14.7,-14.7,-14.7
-5.95,-0.82,-7.63,-15.19,-15.89,-15.89
-6.08,-0.65,-8.1,-19.53,-19.53,-19.53
-6.25,-2.31,-9.27,-13.44,-13.44,-12.18
-6.08,-1.21,-8.25,-10.71,-10.43,-10.43
-6.05,-1.49,-7.93,-6.65,-6.65,-5.88
-5.87,-1.43,-7.64,-2.17,-2.17,-1.47
-5.72,-0.94,-7.98,1.26,1.26,1.12
-5.4,-0.52,-8.65,-2.87,-2.87,-3.85
-4.83,-1.02,-9.38,-10.43,-10.43,-8.19
-4.73,0.01,-9.35,-14.56,-14.56,-15.54
-4.76,-0.42,-10.21,-21.35,-21.35,-21.21
-4.7,-1.23,-10.21,-17.57,-16.1,-15.33
-5.15,-1.37,-9.19,7.21,7.21,8.05
-5,-1.16,-9.24,12.18,12.74,13.02
-4.35,-0.4,-9.16,11.55,11.55,10.01
-3.91,-0.26,-9.13,7.56,7.56,6.93
-3.89,-0.67,-9.46,6.58,7.07,7.14
-3.84,-0.18,-9.3,5.81,5.18,5.18
-3.27,0.44,-9.22,-2.31,-3.43,-3.43
-3.04,0.12,-9.42,-10.71,-10.71,-10.85
-3.57,-0.36,-9.22,-10.92,-10.92,-10.92
-3.82,-0.48,-9.08,-10.36,-10.36,-10.36
-3.58,-0.53,-8.66,-8.26,-8.26,-8.26
-3.38,-0.67,-8.49,-4.34,-4.34,-4.34
-3.28,-0.64,-8.6,-1.89,-1.89,-1.89
-3.34,-0.89,-9.33,2.59,2.59,2.59
-3.29,-0.34,-9.16,6.3,6.3,6.3
-3.22,-0.09,-8.78,2.38,2.38,1.89
-3.35,-1.12,-10.47,-1.05,-1.05,-1.05
-3.4,-0.67,-10.56,-2.38,-3.08,-3.08
-3.53,-0.81,-10.1,-4.76,-4.76,-4.76
-3.87,-1.26,-9.96,-2.17,-2.17,-2.17
-4.26,-1.47,-9.97,4.48,4.48,4.48
-4.33,-1.54,-9.68,10.01,10.01,10.01
-4.01,-1.31,-9.55,13.02,13.79,13.79
-3.81,-1.29,-9.36,15.75,16.17,16.17
-3.43,-0.97,-9.13,16.59,16.59,16.59
-3.04,-0.81,-9.05,16.87,16.87,16.87
-2.42,-0.41,-9.49,12.81,12.81,12.81
-1.85,-0.07,-9.55,4.69,4.69,4.69
-1.79,0.12,-9.55,-0.7,-3.85,-3.85
-2.36,-0.48,-9.6,-8.33,-8.33,-8.33
-2.75,-0.97,-9.84,-8.33,-8.33,-8.33
-3.06,-1.26,-9.72,-5.6,-4.55,-4.55
-3.48,-1.57,-9.62,-0.07,-0.07,2.03
-3.9,-1.65,-9.65,8.33,8.96,8.96
-3.85,-1.4,-9.83,12.81,12.81,12.95
-3.4,-1.16,-10.03,13.93,13.93,14
-3.05,-0.9,-10.21,14.35,14.28,14.28
-3.05,-0.73,-10.27,12.6,12.6,11.69
-3.31,-0.86,-10.41,6.16,6.16,6.16
-3.35,-1,-10.33,1.82,1.75,1.54
-3.55,-1.51,-10.05,4.2,5.04,5.04
-3.86,-2.17,-9.85,15.75,16.87,16.87
-3.88,-2.21,-9.96,23.24,23.24,24.01
-3.66,-1.8,-10.31,29.47,29.47,29.47
-3.63,-1.67,-10.92,31.43,31.01,31.01
-4.68,-2.22,-10.63,20.51,20.93,20.93
-4.78,-2.32,-10.14,30.59,30.94,30.94
-4.77,-2.27,-9.83,32.06,32.13,32.13
-3.5,-1.65,-9.73,26.81,26.04,26.04
-3.26,-1.79,-9.16,18.9,18.9,18.27
-3.7,-2.14,-8.77,15.68,15.68,15.54
-4.02,-2.35,-8.57,14.14,14.14,13.72
-3.9,-2.68,-8.56,13.86,13.86,14.14
-4.41,-3.54,-8.49,21.14,21.14,22.12
-4.96,-3.57,-8.26,26.81,26.81,26.81
-5.36,-3.52,-8.16,37.94,38.22,38.22
-6.03,-0.94,-7.34,1.47,0.35,0.35
-5.24,-3.65,-7.76,8.05,8.89,8.89
-5.17,-3.94,-8.07,14.56,14.56,16.8
-5.52,-3.88,-7.38,21.42,21.42,21.42
-5.29,-3.38,-7.12,23.94,23.94,23.94
-6.97,0.98,-7.66,8.12,8.12,8.12
-5.36,-3.9,-7.35,8.75,8.75,8.75
-6.45,-4.24,-6.92,16.1,16.1,17.01
-8.44,-4.33,-6.95,17.22,17.22,18.9
-7.49,-4.86,-6.16,37.31,37.31,37.31
-7.65,-2.79,-5.84,37.8,38.71,38.71
-7.07,-3.34,-5.92,42.42,42.42,42.42
-7.14,-2.9,-5.75,33.67,32.27,32.27
-7.63,-3.3,-5.78,25.2,25.2,24.5
-8.69,-4.34,-5.09,26.32,26.32,26.32
-9.07,-4.24,-4.46,31.99,32.55,32.55
-8.24,-4.33,-3.89,39.83,40.67,40.67
-8.21,-4.33,-3.69,46.83,46.83,46.83
-8.48,-5.12,-3.26,63.21,63.21,63.21
-8.81,-5.47,-3.02,73.85,73.85,73.85
-8.4,-5.2,-2.82,78.68,78.68,78.68
-7.18,-3.91,-2.53,78.68,77.7,77.7
-5.84,-2.29,-2.18,69.65,69.65,67.76
-4.76,-1.02,-1.94,45.99,45.99,42.21
-5.07,-1.91,-1.27,13.65,13.65,13.65
-6.37,-4.14,-0.94,5.18,4.69,4.69
-7.88,-6.23,-0.61,10.71,10.71,12.67
-8.93,-7.34,-0.41,38.99,38.99,38.99
-9.38,-7.78,-0.64,66.92,66.92,66.92
-8.66,-6.69,-0.88,81.69,84.35,84.35
-7.48,-5.15,-0.79,86.1,84.84,84.84
-5.96,-3.63,-0.14,74.27,74.27,74.27
-7.75,-5.05,1.7,31.43,31.57,31.57
-7.48,-5.47,2.8,42.42,42.42,42.42
-7.75,-4.99,2.07,35.56,35.56,35.56
-7.94,-5.28,2.35,31.08,30.52,30.52
-7.88,-6.16,3.19,32.69,34.37,34.37
-7.32,-6.06,3.14,39.48,39.48,39.97
-5.81,-4.51,2.88,34.72,34.72,34.72
-5.02,-4.22,3.2,26.46,24.57,24.57
-5.15,-5.25,4.03,22.05,22.05,21.98
-5.8,-4.81,3.96,19.32,19.32,19.32
-5.46,-4.34,3.97,14.7,13.58,13.58
-5.69,-4.57,4.13,11.48,11.48,10.85
-6.67,-5.23,4.73,8.12,8.12,8.12
-7.06,-5.34,4.84,5.67,5.67,5.67
-7,-5.41,4.96,6.3,6.3,6.3
-7.4,-5.72,5.18,9.38,9.38,10.71
-7.82,-5.83,5.23,13.51,13.51,13.51
-7.47,-4.94,4.93,14.28,14.14,14.14
-6.39,-3.77,4.97,-1.89,-1.89,-1.89
-6.89,-4.45,5.01,-6.44,-6.44,-6.44
-7.56,-5.31,5.33,-3.57,-3.57,-3.57
-7.78,-5.12,5.25,0,0,0
-7.44,-4.51,4.87,0.21,-0.14,-0.14
-7.35,-4.55,4.74,-0.84,-0.84,-0.56
-7.33,-4.84,5.02,1.12,1.12,1.12
-6.97,-4.42,5.06,-0.14,-0.7,-0.7
-6.53,-4.2,4.76,-8.19,-8.82,-8.82
-6.57,-4.48,4.41,-10.78,-10.64,-10.64
-7.14,-5.23,4.42,-8.12,-7.49,-7.49
-7.38,-5.23,4.45,-4.2,-3.64,-3.64
-7.29,-4.9,4.3,-2.73,-2.73,-2.87
-6.8,-4.39,4.22,-4.69,-4.69,-5.11
-6.54,-4.14,4.15,-7.91,-7.91,-7.91
-6.71,-3.8,3.94,-11.83,-13.79,-13.79
-6.91,-3.62,3.65,-20.44,-20.44,-22.75
-7.45,-4.42,3.82,-27.16,-27.16,-27.79
-7.74,-5.22,3.95,-27.79,-27.79,-27.23
-7.16,-4.49,3.43,-23.45,-23.45,-23.45
-6.91,-4.38,3.23,-26.53,-26.53,-26.53
-6.64,-4.4,3.26,-32.34,-32.34,-32.34
-6.43,-4.44,3.57,-31.57,-31.57,-31.57
-7.16,-3.24,3.04,-29.96,-31.5,-31.5
-5.83,-4.15,2.84,-43.54,-43.54,-44.03
-6.51,-4.31,2.68,-48.02,-48.02,-48.93
-7.03,-4.93,2.72,-52.22,-52.22,-52.08
-7.12,-5.25,2.69,-48.3,-48.3,-48.3
-7.3,-4.88,2.58,-40.04,-39.06,-39.06
-7.88,-4.94,2.05,-35.35,-35.35,-35.35
-7.97,-4.93,1.97,-32.69,-32.69,-32.69
-8.27,-4.64,2.09,-30.31,-30.31,-30.31
-14.41,-0.9,2.18,-72.03,-73.08,-73.08
-8.79,-4.89,0.79,-66.15,-65.66,-65.66
-8.61,-4.99,-0.34,-64.82,-64.82,-64.47
-8.11,-6.22,-0.9,-49.77,-49.77,-49.77
-8.67,-5.81,0.67,-18.62,-18.62,-18.62
-8.65,-5.29,0.36,-14.84,-14.84,-14.84
-7.93,-4.32,-0.03,-6.65,-6.65,-6.72
-9.52,-0.57,-0.53,-22.54,-22.54,-22.54
-8.03,-4.38,-1.01,-21.98,-21.98,-21.98
-7.88,-4.19,-1.23,-19.88,-19.32,-19.32
-8.71,-2.66,-1.59,-21.7,-21.7,-23.52
-8.85,-4.16,-1.98,-25.2,-25.2,-25.2
-9.06,-4.94,-2.23,-15.05,-13.58,-13.58
-9.31,-4.64,-2.36,-4.48,-3.22,-3.22
-8.87,-3.27,-3.13,-1.61,-2.24,-2.24
-8.36,-2.45,-3.6,-14.14,-14.14,-15.82
-8.06,-2.86,-3.59,-23.03,-23.03,-23.8
-8.17,-3.08,-3.51,-25.69,-25.9,-25.9
-7.93,-2.63,-3.36,-26.74,-27.3,-27.3
-8.17,-2.59,-4.08,-32.62,-35.35,-35.35
-8.55,-3.57,-5.02,-44.31,-45.5,-45.5
-8.64,-4.53,-5.53,-47.74,-47.74,-46.83
-8.82,-5.29,-5.22,-38.22,-38.22,-35.98
-8.97,-5.66,-4.69,-18.9,-13.44,-13.44
-8.94,-4.87,-4.33,1.96,1.26,1.26
-9.92,0.1,-4.6,-24.43,-24.43,-24.43
-7.64,-2.52,-5.01,-26.6,-26.6,-26.6
-7.06,-2.39,-4.98,-27.16,-27.16,-27.16
-7.08,-2.61,-4.82,-19.53,-19.95,-19.95
-6.96,-2.39,-5.34,-22.68,-22.68,-22.68
-6.65,-2.36,-5.37,-23.59,-23.59,-23.59
-6.26,-2.64,-5.06,-21.7,-21.7,-21.7
-5.98,-3,-4.79,-14.56,-14.56,-13.44
-5.91,-2.71,-5.13,-8.47,-7.42,-6.93
-5.83,-1.73,-5.61,-7.28,-7.28,-7.28
-6,-1.59,-5.6,-12.11,-12.67,-12.67
-6.21,-2.06,-5.94,-15.68,-16.73,-16.73
-6.52,-2.26,-6.3,-16.8,-16.73,-16.73
-7.27,-4.11,-6.42,-1.05,16.87,0.14
-7.48,-2.14,-6.89,3.36,3.57,3.36
-7.9,-2.12,-7,-1.47,-1.47,-2.24
-7.76,-2.57,-7.74,-3.92,-3.92,-3.99
-7.26,-2.15,-8.22,-5.95,-5.95,-6.44
-7.07,-2.2,-7.88,-11.9,-11.83,-11.83
-6.88,-2.04,-8.25,-12.18,-12.18,-12.25
-6.61,-1.82,-8.32,-13.3,-13.3,-13.3
-5.84,-1.61,-8.59,-9.66,-9.66,-10.36
-5.37,-0.86,-8.86,-14.35,-16.31,-16.31
-5.21,-0.66,-8.8,-22.05,-22.05,-23.66
-5.33,-0.91,-8.54,-26.81,-26.81,-26.81
-5.33,-1.23,-8.69,-28.42,-28.42,-28.42
-4.56,-1.1,-8.97,-29.54,-29.54,-29.54
-4.81,-1.2,-8.65,-28.77,-28.63,-28.63
-4.89,-1.25,-8.42,-26.6,-26.32,-26.32
-4.58,-1.09,-8.7,-25.2,-25.2,-25.2
-4.36,-1.07,-8.91,-23.03,-23.03,-22.75
-4.29,-1.01,-8.95,-21.42,-21.42,-21.49
-3.94,-0.76,-9.26,-21.98,-21.98,-21.98
-3.53,-0.25,-9.68,-26.18,-26.18,-26.18
-3.46,-0.21,-9.84,-28.28,-28.28,-28.28
-3.92,-0.85,-10.22,-26.95,-26.95,-26.74
-4.36,-1.54,-10.52,-20.72,-20.72,-19.74
-4.8,-1.75,-10.51,-8.82,-8.82,-7.7
-3.97,-1.2,-10.79,4.69,5.46,5.46
-4.08,-1.15,-11.04,10.22,10.22,10.5
-4.2,-0.82,-11.05,10.78,10.29,9.94
-4.16,-0.57,-10.96,8.12,7.63,7.49
-4.28,-1.07,-11,7.98,7.98,7.98
-5.52,-1.58,-10.88,18.34,18.34,19.04
-5.7,-0.97,-10.85,20.02,20.02,20.02
-5.36,-0.91,-10.64,19.88,19.88,19.88
-5.03,-0.99,-10.55,23.24,23.24,23.24
-4.49,-0.35,-10.31,18.9,17.15,17.15
-4.47,-0.64,-9.98,13.02,13.02,13.02
-4.59,-1.22,-9.55,15.19,15.19,15.19
-4.42,-1.35,-9.53,16.8,17.22,17.22
-4.15,-1.29,-9.57,17.5,17.5,16.94
-4.15,-1.23,-9.8,13.51,13.51,13.51
-5.04,-1.64,-8.68,29.26,29.26,29.26
-5.06,-1.06,-9.54,21.42,20.51,20.51
-5.38,-2.09,-8.91,19.95,19.95,19.95
-6,-2.66,-7.37,34.93,34.93,34.93
-6.44,-2.61,-8.21,42.49,43.12,43.12
-5.99,-1.63,-8.72,38.78,38.78,36.96
-5.66,-1.89,-8.75,37.1,37.1,37.1
-5.73,-2.32,-8.98,33.67,33.67,35.14
-6.29,-2.81,-8.73,38.36,38.36,38.36
-6.62,-2.64,-8.37,42.98,42.98,42.98
-6.45,-2.42,-8.47,42.7,42.7,42.77
-6.63,-2.65,-8.14,43.4,43.4,43.4
-6.82,-2.72,-7.9,44.38,44.38,44.38
-9.28,3.24,-7.65,5.39,6.44,6.44
-6.39,-2.94,-7.82,10.64,10.99,10.99
-7.62,-3.55,-7.51,11.06,11.41,11.41
-8.26,-4.41,-6.87,24.5,24.5,24.5
-6.98,-3.6,-6.38,37.66,37.66,37.66
-5.58,-2,-6.28,40.04,39.48,39.48
-5.75,-1.65,-6.19,34.16,34.16,31.22
-6.7,-2.22,-6.37,22.61,22.61,22.61
-7.37,-2.88,-6.01,12.74,12.74,12.74
-7.47,-3.49,-5.17,12.95,12.95,13.72
-7.71,-4.2,-3.78,27.58,27.58,27.58
-8.25,-4.47,-3.19,38.36,41.58,41.58
-8.46,-4.34,-3.16,47.25,47.25,47.6
-7.83,-3.7,-3.18,46.9,46.9,46.9
-7.84,-3.73,-2.91,43.54,43.54,43.54
-7.99,-4.11,-2.47,43.05,43.05,42.91
-7.45,-3.76,-2.31,39.83,39.83,39.83
-7.36,-4.1,-1.89,33.04,33.04,33.04
-7.93,-4.71,-1.68,34.51,34.51,36.47
-7.93,-4.91,-1.23,43.61,43.61,43.61
-7.22,-4.71,-0.88,49.56,49.56,49.56
-7.3,-5,-0.64,52.64,52.64,52.92
-7.52,-5.06,-0.69,55.44,55.44,55.44
-6.41,-3.91,-0.49,51.73,51.73,51.73
-5.8,-3.59,-0.46,38.5,35.56,35.56
-6.71,-5.44,0.47,31.71,31.71,31.71
-7.66,-6.84,0.77,38.71,40.39,40.39
-7.9,-6.41,0.51,52.5,52.5,52.5
-8.15,-5.92,0,58.73,58.94,58.94
-8.04,-5.76,0.18,61.46,61.46,62.16
-7.24,-5.36,0.79,68.11,68.11,68.11
-6.02,-4.14,1.16,66.29,66.29,66.29
-5.14,-2.85,1.57,54.46,52.71,52.71
-5.51,-3.09,1.72,34.3,34.3,32.27
-5.94,-3.32,1.4,22.26,18.69,17.08
-5.82,-4.15,1.9,10.78,10.78,8.12
-6.47,-5.62,2.45,6.09,6.09,6.44
-7.33,-6.59,2.8,10.01,10.01,13.23
-7.69,-6.4,3.14,17.64,17.64,18.13
-7,-5.45,3.41,15.89,15.89,15.05
-7.03,-5.71,3.76,12.53,12.53,12.81
-7.65,-6.32,4.24,17.08,17.08,18.13
-7.12,-5.46,4.12,23.1,23.1,23.1
-6.09,-4.55,2.45,17.29,17.29,17.29
-6.46,-4.92,3.57,11.69,10.22,10.22
-7.28,-5.64,3.84,9.73,9.73,9.73
-7.03,-5.67,4.02,11.41,11.34,11.34
-6.53,-5.48,4.07,10.29,9.52,9.52
-6.83,-5.43,3.88,8.75,8.75,8.75
-7.42,-5.71,4.11,10.71,10.85,10.85
-6.88,-5.24,4,9.73,9.73,9.1
-6.63,-5,3.88,1.75,1.75,1.75
-7.14,-5.8,4.2,9.38,9.38,9.38
-6.99,-5.54,3.85,8.96,8.75,8.75
-6.99,-5.77,4.08,7.77,7.84,7.84
-6.07,-4.99,4.33,1.47,1.47,1.47
-5.7,-4.58,4.17,-6.02,-6.02,-6.02
-5.82,-4.74,3.64,-16.03,-16.03,-16.03
-6.01,-5.19,3.61,-21.7,-21.7,-21.7
-6.08,-5.62,3.68,-22.61,-22.33,-22.33
-6.66,-5.31,2.65,-24.08,-24.08,-24.08
-7.27,-5.97,2.78,-26.18,-25.97,-25.97
-7.45,-6.38,3.19,-18.48,-18.48,-17.22
-7.61,-5.87,3.44,-12.53,-12.53,-10.22
-7.31,-4.99,2.78,-10.01,-10.01,-10.01
-7.21,-4.79,2.37,-18.62,-18.62,-18.62
-7.33,-5.01,2.45,-24.78,-24.78,-24.78
-7.24,-4.86,2.43,-25.76,-25.55,-25.55
-6.88,-4.44,2.21,-25.2,-25.2,-25.55
-10.59,-2.79,0.16,-28.42,-32.2,-32.2
-6.81,-5.15,1.79,-41.09,-41.09,-41.09
-6.73,-4.65,1.85,-40.04,-40.32,-40.32
-7.06,-4.02,1.65,-42.14,-43.33,-43.33
-7.41,-4.12,1.09,-45.64,-46.34,-47.32
-7.8,-5.01,0.92,-49.14,-49.28,-49
-8.55,-5.73,0.99,-46.06,-45.15,-45.15
-9.28,-5.91,1.16,-31.08,-29.05,-29.05
-9.28,-5.33,0.83,-17.01,-15.75,-15.75
-9.16,-4.83,0.57,-11.76,-10.64,-10.64
-8.98,-4.7,0.43,-10.99,-10.99,-10.99
-8.68,-3.72,0.09,-14.91,-14.91,-15.61
-8.61,-3.06,-0.31,-21.91,-23.45,-23.45
-8.85,-3.35,-0.46,-29.26,-29.26,-29.82
-8.64,-3.99,-0.35,-31.64,-31.64,-31.64
-8.53,-3.86,-0.51,-30.24,-30.03,-30.03
-9.07,-3.87,-0.58,-29.05,-28.35,-28.35
-9.06,-3.28,-0.9,-26.81,-26.81,-26.67
-8.83,-3.35,-1.28,-31.29,-31.29,-31.29
-8.71,-4.02,-1.51,-35,-35.49,-35.49
-8.92,-4.25,-1.57,-34.09,-34.09,-33.74
-8.77,-3.53,-1.87,-32.06,-32.06,-32.06
-8.75,-3.24,-2.15,-33.81,-34.93,-34.93
-8.5,-3.72,-2.16,-37.1,-36.75,-36.75
-8.29,-4.17,-1.94,-32.76,-32.76,-30.73
-8.35,-3.9,-1.95,-22.05,-22.05,-22.05
-8.12,-3.06,-2.65,-21.35,-22.05,-22.05
-7.98,-2.86,-2.9,-27.65,-28.56,-28.56
-7.82,-3.16,-2.71,-33.46,-33.46,-33.32
-7.94,-3.46,-2.66,-30.8,-30.8,-28.49
-8,-3.05,-2.98,-24.64,-24.64,-23.87
-7.91,-2.65,-3.38,-23.31,-23.31,-23.66
-7.94,-2.74,-3.91,-28.91,-28.91,-28.91
-8.6,-4.72,-3.57,-12.11,-12.11,-12.11
-8.36,-2.91,-4.05,-11.9,-11.9,-11.9
-8.85,-2.68,-4.5,-15.12,-16.66,-16.66
-9,-2.89,-4.58,-20.72,-20.72,-20.72
-8.67,-3.76,-4.47,-11.76,-11.76,-10.5
-8.6,-3.07,-4.67,-8.26,-7.28,-7.28
-8.88,-2.94,-4.62,-4.97,-4.41,-4.41
-8.46,-2.57,-4.55,-1.19,-1.33,-1.33
-7.83,-2.25,-5.22,-2.87,-2.87,-3.29
-7.34,-1.75,-4.91,-8.33,-8.33,-8.33
-6.97,-1.64,-5.19,-14.49,-14.49,-14.49
-6.51,-1.16,-5.9,-21.42,-22.54,-22.54
-6.26,-0.85,-6.64,-31.01,-32.2,-32.2
-6.15,-1.05,-6.81,-37.24,-37.94,-38.99
-6.43,-1.73,-6.97,-38.64,-38.22,-38.22
-6.59,-1.9,-7.58,-34.65,-34.65,-34.23
-6.74,-1.93,-8.44,-30.38,-30.38,-30.38
-7.06,-2.03,-8.86,-28.35,-27.37,-27.37
-7.87,-2.42,-9.15,-22.75,-21.7,-21.7
-8.1,-2.44,-9.36,-15.82,-15.05,-15.05
-8.17,-2.49,-9.43,-8.82,-8.82,-7.98
-8.5,-2.47,-9.15,-3.01,-3.01,-2.31
-8.23,-2.08,-9.44,-0.14,-0.14,-0.35
-7.44,-1.23,-9.27,-3.5,-3.5,-3.5
-6.51,-0.5,-8.82,-12.95,-12.95,-12.95
-5.77,-0.37,-8.44,-19.53,-21.42,-21.42
-5.32,-0.26,-8.21,-27.58,-27.58,-29.54
-4.91,-0.37,-8.26,-33.88,-33.88,-33.88
-4.34,-0.21,-8.15,-39.34,-39.34,-39.34
-4.05,-0.73,-8,-38.85,-38.85,-38.85
-4.31,-1.27,-7.77,-31.5,-31.5,-31.5
-4.76,-1.49,-7.83,-25.2,-24.22,-24.22
-5.92,-1.98,-7.91,-6.79,-6.79,-5.25
-6.12,-1.68,-7.91,1.89,1.89,2.52
-5.74,-1.16,-7.96,6.37,6.37,6.37
-5.38,-0.89,-8.13,6.09,6.3,6.3
-5.14,-1.03,-8.45,7.42,7.21,7.21
-4.92,-0.6,-8.54,5.25,5.25,4.9
-4.73,-0.32,-8.54,1.12,1.12,0.63
-4.73,-0.49,-8.29,-1.4,-1.4,-1.4
-4.77,-0.7,-8.68,0.49,0.49,0.49
-4.8,-0.37,-8.67,1.54,1.54,1.54
-4.97,-0.28,-8.64,1.33,1.33,1.33
-5.06,-0.36,-8.75,2.8,3.43,3.43
-5.25,-0.65,-8.79,6.16,6.16,6.16
-5.13,-0.67,-9.08,10.78,10.78,10.78
-5.01,-0.53,-9.28,12.25,12.25,12.25
-5.18,-0.36,-9.32,11.13,10.85,10.85
-5.52,-0.39,-9.28,9.03,8.05,7.49
-5.55,-0.48,-9.45,4.97,4.41,3.43
-5.34,-0.62,-9.82,1.33,1.33,0.28
-5.26,-0.71,-9.9,-0.91,-0.91,-1.12
-5.18,-0.97,-9.9,1.26,1.26,1.54
-4.9,-1.03,-9.82,4.27,4.27,4.62
-5.05,-1.23,-9.57,7.91,7.91,8.61
-5.33,-1.23,-9.46,12.25,12.25,12.25
-4.52,-0.65,-9.68,15.4,15.05,15.05
-4.54,-0.57,-9.81,12.46,12.46,12.18
-4.76,-0.54,-9.8,9.8,9.8,9.31
-5,-0.68,-9.7,5.81,5.81,5.81
-5.31,-0.91,-9.33,2.24,2.24,2.24
-5.69,-1.21,-9.2,2.45,2.45,2.45
-5.58,-0.96,-9.18,2.59,2.59,2.73
-5.5,-1.01,-9.35,3.92,3.92,4.83
-5.39,-1.45,-9.32,11.06,13.16,14.07
-5.28,-1.07,-9.26,16.52,16.45,16.1
-5.27,-0.75,-9.38,11.97,11.2,11.2
-5.44,-1.23,-9.25,7.28,7.07,7.07
-5.36,-1.43,-9.19,6.02,6.02,5.88
-5.1,-1.19,-9.21,3.99,2.8,1.96
-4.99,-1.34,-9.3,-2.17,-2.17,-4.06
-5.61,-2.43,-9.21,-3.92,-3.92,-3.22
-6.43,-3,-9.03,4.83,4.83,6.3
-6.7,-3.27,-8.85,14,17.36,19.25
-6.7,-3.8,-8.93,31.64,31.64,33.81
-6.62,-3.09,-8.67,46.55,46.55,47.46
-5.62,-0.97,-8.51,38.43,36.54,36.54
-5.6,-1.67,-8.39,20.51,20.02,20.02
-5.94,-2.79,-8.13,24.57,24.57,24.57
-6.11,-2.39,-7.52,25.13,25.13,25.13
-6.7,-2.97,-6.8,29.89,29.89,29.89
-7.45,-3.72,-6.51,37.52,40.53,40.53
-7.2,-3.26,-6.45,46.48,46.48,46.48
-6.44,-2.13,-6.02,45.43,45.43,45.43
-6.07,-1.85,-5.68,41.16,41.16,41.16
-5.73,-1.87,-5.85,34.44,34.44,33.53
-5.92,-2.57,-6.84,27.65,27.65,27.65
-9.66,3.62,-6.54,11.69,11.69,11.69
-8.27,-5.03,-6.03,18.27,21.07,21.07
-9.41,-5.29,-5.36,52.36,41.3,41.3
-9.13,-1.21,-5.04,38.78,38.78,38.78
-8.06,-3.88,-6.27,41.72,41.72,41.72
-6.86,-2.64,-6.15,31.57,31.57,31.57
-6.71,-2.81,-5.77,16.73,16.73,16.73
-7.27,-3.83,-5.4,6.93,6.86,6.86
-7.63,-4.99,-4.48,11.9,13.86,13.86
-7.9,-5.69,-3.82,29.12,29.12,29.12
-8.26,-5.8,-3.49,57.33,57.33,57.33
-7.65,-4.76,-3.35,68.88,68.88,68.88
-6.36,-2.77,-3.45,63.49,63.49,61.32
-5.58,-2.06,-3.19,38.85,38.85,36.4
-6.72,-2.79,-2.81,23.66,23.66,22.96
-8.21,-4.76,-2.13,24.78,24.78,24.78
-8.28,-5.38,-1.36,36.19,37.52,37.52
-7.75,-5.24,-1.41,44.45,45.5,45.5
-7.41,-4.62,-1.45,50.05,50.05,49.98
-7.19,-4.33,-1.56,48.44,46.83,45.64
-7.07,-4.5,-1.65,38.36,37.31,37.31
-7.57,-5.45,-1.37,31.71,31.85,31.85
-8.49,-6.27,-1.42,35.28,35.28,35.28
-8.87,-6.47,-0.95,50.54,50.54,50.54
-8.69,-4.94,-1.05,60.13,60.13,61.32
-8.41,-6,-1.08,67.48,67.48,67.48
-7.76,-5.67,0.04,75.95,75.95,75.95
-6.38,-4.33,0.54,79.45,79.45,79.45
-5.72,-3,0.63,65.94,65.94,65.94
-5.47,-2.88,0.83,49.84,49.84,49.84
-5.47,-3.28,1.28,36.26,36.26,36.26
-5.78,-3.72,2.2,16.17,13.86,13.86
-6.17,-4.45,2.09,-1.26,-3.08,-3.08
-6.9,-6.3,2.01,-8.4,-8.4,-8.4
-7.63,-7.52,2.31,-3.36,1.33,1.33
-7.79,-7.63,2.62,9.38,10.64,11.76
-7.1,-7.23,2.67,15.82,15.89,15.89
-6.52,-6.98,2.58,16.03,16.03,15.96
-5.82,-6.45,2.88,14.7,13.58,13.02
-4.95,-5.38,2.98,9.03,9.03,5.46
-5.81,-6.98,3.75,-4.13,-4.13,-4.13
-5.87,-7.34,3.89,1.05,2.8,2.8
-5.37,-6.72,3.69,5.04,5.04,5.04
-5.18,-6.38,3.33,4.34,4.27,4.27
-5.68,-6.88,3.42,4.34,4.34,4.34
-5.7,-6.82,3.44,4.34,4.34,4.34
-6.13,-6.77,3.36,3.57,3.71,3.71
-7,-7.13,3.35,5.25,5.6,5.6
-7.42,-7.43,3.28,9.24,9.24,9.66
-7.29,-7.3,3.16,12.6,12.6,12.88
-7.06,-6.75,3.06,13.3,13.3,13.44
-6.83,-6.41,2.68,13.37,13.37,13.37
-6.67,-6.26,2.67,13.37,13.58,13.58
-6.44,-6.02,2.97,13.37,13.02,13.02
-6.25,-5.64,3.08,9.38,8.61,8.61
-6.23,-5.57,3.08,2.87,1.26,0.63
-6.29,-5.79,3,-1.82,-1.82,-2.8
-6.55,-6.02,2.9,-4.06,-4.06,-4.13
-6.72,-6.22,2.86,-4.41,-4.41,-4.2
-6.75,-6.13,2.83,-3.36,-3.36,-2.59
-6.76,-5.9,2.63,-0.84,-0.84,-0.84
-6.11,-5.05,2.26,-1.12,-1.12,-1.12
-6.1,-4.81,2.21,-8.4,-8.4,-8.4
-6.37,-4.88,2.46,-16.59,-17.5,-17.5
-6.96,-4.55,2.46,-27.65,-27.65,-27.65
-7.53,-4.51,2.42,-36.54,-36.54,-36.54
-7.47,-5.27,2.34,-42.35,-42.35,-42.35
-7.49,-6.17,2.39,-38.36,-38.36,-38.36
-7.44,-5.1,2.22,-30.66,-30.17,-30.17
-7,-4.49,1.93,-30.45,-30.87,-30.87
-6.82,-4.68,1.86,-33.81,-33.88,-33.88
-7.29,-5.36,1.69,-32.13,-31.57,-31.57
-7.87,-4.82,1.52,-28.63,-28.63,-28.56
-8.35,-4.07,1.23,-28.63,-28.84,-28.84
-8.9,-4.51,0.69,-33.46,-33.46,-33.74
-8.82,-5.16,0.4,-33.6,-33.6,-33.53
-17.31,5.49,0.31,-95.97,-95.97,-95.97
-9.62,-6.51,-0.02,-72.17,-72.17,-72.17
-9.71,-5.83,0.02,-50.89,-50.89,-50.89
-9.14,-5.99,-0.21,-40.53,-38.85,-38.85
-8.02,-6.12,-0.55,-28.42,-28.42,-26.6
-7.47,-5.22,-0.76,-14.63,-14.63,-13.23
-6.93,-4,-0.57,-7.7,-7.7,-7.7
-6.49,-3.08,-0.53,-10.78,-10.78,-10.78
-6.51,-3.21,-1.06,-18.27,-18.27,-18.27
-6.77,-3.83,-1.57,-20.16,-20.09,-20.09
-7.27,-3.8,-1.98,-18.48,-18.48,-18.06
-8.44,-3.96,-2.62,-18.13,-18.13,-18.13
-8.98,-4.3,-2.98,-16.45,-16.45,-14.56
-9.36,-4.75,-2.99,-9.31,-9.31,-7.91
-9.5,-4.63,-2.8,3.57,3.57,3.57
-9.19,-3.48,-3.23,5.53,5.25,5.25
-8.44,-2.03,-4,-6.3,-6.3,-8.4
-7.87,-1.42,-4.11,-19.74,-24.15,-26.25
-7.68,-1.97,-3.9,-36.12,-36.12,-41.23
-7.84,-2.97,-4.17,-48.51,-48.51,-51.59
-8.24,-4.05,-4.4,-51.94,-51.94,-51.94
-8.44,-4.25,-4.63,-44.31,-44.31,-44.31
-8.43,-4.2,-5.05,-38.92,-38.92,-38.92
-8.2,-4.15,-5.26,-33.53,-33.53,-33.53
-8.05,-4.3,-5.68,-24.5,-23.38,-23.38
-8.16,-3.7,-6.14,-18.76,-17.29,-17.29
-8.82,4,-6.19,-23.38,-27.16,-27.16
-9.34,-3.17,-6.36,-28.14,-27.86,-26.74
-9.66,-3.82,-6.24,-20.65,-20.65,-19.67
-9.57,-3.81,-6.16,-9.45,-9.45,-9.45
-8.81,-3.48,-5.9,-2.52,-2.52,-2.52
-8.01,-2.48,-5.49,1.4,1.4,1.4
-7.13,-0.55,-5.3,-11.55,-11.55,-11.55
-6.55,-1.7,-5.83,-21.98,-23.03,-23.03
-5.83,-1.69,-6.08,-27.3,-29.54,-29.54
-6.42,-2.01,-6.53,-19.32,-19.32,-19.32
-6.33,-2.78,-6.79,-13.58,-13.58,-13.58
-6.28,-2.85,-6.79,-5.18,-4.27,-4.27
-6.13,-2.69,-7.17,1.4,2.24,2.24
-5.83,-2.22,-7.69,4.62,4.41,4.27
-5.58,-1.74,-8.28,2.24,1.75,1.75
-5.89,-1.92,-8.39,-2.66,-2.66,-2.66
-6.01,-1.99,-8.52,-6.37,-6.37,-6.37
-5.79,-1.79,-8.6,-9.03,-9.03,-9.03
-5.8,-1.85,-8.67,-10.15,-10.15,-10.15
-6.1,-1.79,-8.95,-9.8,-9.8,-9.8
-6.02,-1.37,-9.04,-10.29,-10.29,-10.29
-5.38,-1.47,-9.63,-15.33,-15.68,-15.68
-5.52,-2.16,-9.53,-14.7,-14.7,-14.28
-5.44,-2.12,-9.41,-11.69,-11.69,-11.34
-5.05,-1.71,-9.33,-10.29,-9.87,-9.66
-4.8,-1.73,-9.03,-7.07,-7.07,-7.07
-4.71,-1.65,-8.9,-4.06,-3.64,-3.36
-4.49,-1.26,-8.86,-3.15,-3.15,-3.15
-4.1,-0.94,-8.92,-4.9,-5.18,-5.18
-3.91,-0.85,-8.81,-6.93,-7.77,-7.77
-3.85,-0.92,-8.66,-9.24,-9.24,-9.24
-3.73,-0.75,-8.76,-12.04,-12.04,-12.04
-3.71,-0.78,-8.8,-14.14,-14.14,-14.14
-3.86,-1.08,-8.65,-14.14,-14.14,-14.14
-4.08,-1.36,-8.65,-11.34,-11.34,-11.34
-4.03,-1.21,-8.76,-10.08,-10.01,-10.01
-3.77,-2.47,-13.54,-4.48,-0.63,-0.63
-3.84,-1.02,-9.67,1.47,1.47,1.47
-3.98,-0.97,-9.34,0.28,-0.49,-0.49
-4.24,-1.21,-9.49,-2.8,-3.01,-3.01
-4.86,-1.81,-9.61,1.4,1.4,1.4
-4.66,-1.33,-9.76,2.17,2.17,2.17
-4.21,-1.04,-9.82,-0.63,-0.63,-0.63
-4.31,-1.26,-9.69,-2.1,-2.1,-2.1
-4.31,-3.29,-11.1,8.82,8.82,8.82
-3.99,-0.97,-9.64,11.83,11.48,11.48
-3.88,-0.72,-9.5,7.49,6.93,6.93
-4.24,-1.08,-9.2,2.38,2.38,2.38
-4.25,-0.96,-9.22,0.42,0.42,0.42
-4.46,-1.03,-9.32,0.28,0.28,0.28
-4.55,-0.86,-9.54,-3.99,-3.99,-3.99
-4.99,-0.99,-9.89,-12.25,-12.32,-12.32
-5.5,-1.42,-9.7,-11.97,-11.69,-11.69
-6.1,-1.73,-9.6,-7.98,-7.98,-7.98
-6.05,-1.84,-9.87,-3.92,-3.92,-3.92
-5.78,-1.9,-10.05,0.84,2.31,2.31
-5.47,-1.54,-10.19,5.74,6.44,6.44
-5.53,-1.44,-10.07,7.7,7.7,7.7
-5.48,-1.58,-10.16,9.45,10.01,10.01
-5.5,-1.99,-10.04,13.44,13.44,13.44
-5.58,-2.18,-9.48,18.9,18.9,19.81
-5.71,-2.22,-8.73,28.35,28.35,28.35
-5.72,-2.14,-8.34,33.95,35.28,35.28
-5.75,-2.05,-8.18,38.43,38.43,38.5
-6.14,-2.16,-8.04,38.85,38.85,38.85
-6.25,-1.9,-7.92,37.94,37.94,37.94
-6.22,-1.81,-7.59,35.84,35.84,35.84
-6.55,-2,-7.51,33.81,33.81,33.81
-7.78,-1.79,-7.32,36.33,36.33,35.7
-10.37,4.24,-7.11,-2.24,-2.24,-2.24
-7.41,-3.5,-7.19,7.49,10.92,10.92
-8,-3.8,-6.75,20.93,24.85,24.85
-7.47,-3.61,-6.21,37.17,37.17,41.09
-5.13,-0.66,-5.67,38.71,38.71,38.71
-4.9,-0.19,-5.33,1.61,16.66,16.66
-5.36,-0.94,-4.89,-3.29,-5.67,-5.67
-6.57,-2.82,-4.66,-15.19,-15.33,-15.33
-8.04,-4.79,-4.27,-7.21,-4.97,-4.97
-8.9,-5.83,-3.66,23.38,23.38,27.09
-9.76,-5.65,-3.67,49.98,49.98,52.64
-9.56,-4.73,-3.66,66.71,66.71,66.71
-8.56,-2.97,-3.75,65.66,65.66,65.66
-7.98,-2.56,-3.4,53.55,53.55,53.55
-10.62,-2.12,-2.82,13.58,13.58,13.58
-8.36,-4.58,-1.89,16.87,16.87,16.87
-8.21,-4.59,-1.74,11.9,11.9,11.41
-8.35,-5.77,-0.56,27.51,27.51,27.51
-8.24,-5.57,-0.35,39.55,40.95,38.92
-8.52,-4.96,0.48,35,35.07,34.79
-7.51,-3.63,-0.15,33.04,32.55,31.15
-6.95,-3.62,-0.24,22.61,21.07,21.07
-7.14,-4.43,0.14,14.07,14.07,13.58
-7.45,-5.47,0.48,15.96,17.08,17.08
-7.04,-5.23,0.68,27.02,27.02,27.02
-6.86,-5,0.42,29.54,30.03,30.03
-7.1,-5.31,0.45,31.92,32.97,32.97
-7.41,-6.21,0.76,39.76,41.02,41.02
-9.19,-2.18,-2.04,41.16,41.16,39.76
-7.83,-5.62,0.69,41.02,41.02,41.23
-7.63,-4.9,0.48,41.44,41.44,41.23
-7.32,-4.84,0.59,38.57,38.57,38.57
-6.96,-5.01,1.14,38.85,38.99,38.99
-5.78,-4.31,1.29,26.53,26.53,24.92
-6.05,-4.98,1.59,15.96,15.96,15.26
-6.63,-5.77,1.99,14.07,14.35,14.63
-6.66,-5.69,2.04,14.91,14.91,14.21
-6.75,-6.16,2.04,11.41,11.41,11.48
-7.68,-7.54,2.2,14.63,14.63,15.68
-8.02,-7.31,2.69,28.28,28.28,28.28
-6.7,-6.18,3.24,11.62,11.55,11.55
-6.29,-5.89,2.78,1.61,1.61,1.61
-7.33,-7.12,3.38,5.18,6.16,6.16
-6.56,-5.64,3.47,10.22,10.22,9.38
-6.51,-5.77,3.32,3.99,3.99,3.92
-7.18,-7.03,3.88,5.67,5.67,5.67
-7.26,-7.01,4.46,12.95,12.95,12.95
-6.89,-5.67,4.19,11.55,10.85,10.85
-6.73,-4.95,3.6,4.9,0.7,0.7
-6.84,-5.25,3.52,-4.55,-6.51,-6.51
-6.79,-5.51,3.43,-8.75,-9.03,-9.59
-6.89,-5.87,3.35,-10.36,-10.36,-9.87
-8.18,-6.75,3.24,2.38,2.38,3.29
-7.31,-5.75,3.14,9.38,9.38,9.17
-6.76,-4.59,3.01,4.69,4.69,3.01
-6.69,-4.15,2.94,-10.01,-10.99,-10.99
-7.01,-4.51,2.61,-16.94,-17.78,-17.78
-7.61,-5.6,2.18,-21,-21,-20.51
-8.31,-6.11,2.2,-15.68,-15.68,-11.62
-8.28,-6,2.19,-3.85,-3.85,-2.52
-7.82,-5.09,2.09,5.39,5.39,5.39
-7.73,-4.84,1.52,3.01,3.01,2.17
-8.71,-8.09,1.81,7.91,7.91,7.91
-7.12,-4.5,2.05,6.16,4.62,4.62
-6.81,-3.43,2.45,-2.87,-5.95,-5.95
-6.35,-2.52,2.08,-16.24,-16.24,-20.58
-6.52,-2.88,1.7,-35.42,-35.42,-35.42
-7.47,-4.83,1.57,-55.51,-55.51,-55.51
-8.68,-6.06,1.9,-56.42,-56.42,-56.42
-9.36,-6.93,2.12,-49.14,-47.39,-47.39
-8.96,-6.33,2.17,-30.38,-30.38,-28.63
-8.14,-5.62,2.21,-24.5,-24.64,-24.99
-6.93,-4.68,1.73,-28.49,-28.49,-32.55
-6.25,-3.83,1.3,-41.58,-41.58,-47.81
-6.18,-3.64,0.74,-57.68,-57.68,-59.43
-6.8,-4.91,0.32,-66.5,-66.5,-66.43
-7.93,-6.14,0.59,-62.37,-62.37,-62.37
-8.19,-6.83,1.03,-44.24,-41.65,-41.65
-8.06,-6.06,0.26,-26.53,-25.2,-25.2
-8.8,-5.47,-1.19,-22.82,-22.96,-22.96
-9.27,-5.5,-1.34,-25.48,-25.97,-25.97
-9.04,-5.6,-1.26,-24.43,-24.43,-23.8
-9.04,-5.52,-0.86,-15.82,-15.82,-14.28
-9.07,-4.88,-0.78,-6.58,-3.92,-2.59
-8.94,1.95,-2.18,-0.42,-0.42,-20.51
-8.77,-3.13,-1.34,-29.26,-29.26,-30.73
-7.87,-3.34,-1.52,-36.26,-36.26,-35.98
-7.7,-4.1,-1.46,-29.47,-29.12,-28.42
-7.22,-4.73,-1.91,3.85,3.85,4.13
-6.76,-3.77,-2.91,3.22,3.22,3.22
-7.35,-3.13,-2.91,-4.27,-7.84,-7.84
-7.74,-2.86,-2.99,-19.18,-19.18,-22.75
-7.91,-3.17,-3.57,-34.3,-34.3,-34.3
-15.71,4.33,-5.84,-47.25,-53.76,-53.76
-9.2,-5.14,-4.13,-47.67,-45.99,-42.56
-9.65,-6.14,-4.17,-17.01,-15.96,-15.96
-9.58,-4.36,-4.96,-20.72,-20.09,-20.09
-8.73,-3.87,-5.18,-15.68,-15.68,-15.68
-7.64,-3.74,-4.46,-11.83,-10.99,-10.99
-8.04,-2.93,-4.26,-8.12,-7.35,-7.35
-6.4,-2.79,-4.45,-6.51,-6.51,-7.14
-6.76,-2.94,-5.18,-11.69,-11.69,-11.9
-6.54,-2.59,-5.21,-17.01,-17.01,-17.85
-6.75,-2.58,-5.35,-23.59,-23.59,-24.36
-6.71,-2.23,-5.29,-28.56,-30.03,-30.38
-6.89,-3.05,-5.01,-30.03,-29.61,-29.61
-7.35,-3.01,-5.03,-28.21,-27.79,-26.67
-7.62,-2.85,-5.57,-25.2,-24.85,-24.85
-7.07,-2.79,-6.18,-22.47,-22.47,-22.33
-6.6,-3.09,-6.31,-20.23,-20.23,-18.55
-6.07,-2.95,-6.71,-16.59,-16.59,-15.75
-6.44,-2.44,-7.09,-15.82,-16.1,-16.1
-6.03,-2.49,-7.63,-17.01,-17.08,-17.08
-5.9,-2.39,-7.59,-17.71,-17.71,-17.71
-5.91,-2.55,-7.63,-17.64,-17.64,-17.64
-6.07,-2.44,-7.93,-18.97,-19.25,-19.25
-5.7,-2.41,-8.44,-21,-21.28,-21.28
-5.21,-2.38,-8.78,-21.91,-21.84,-21.84
-5.27,-2.09,-9.04,-23.59,-23.59,-23.73
-5.19,-2.08,-9.22,-24.08,-24.15,-24.15
-5.11,-2.16,-9.66,-24.15,-24.15,-24.15
-5.1,-2.14,-9.39,-23.17,-23.17,-23.17
-4.97,-2.25,-9.22,-21.35,-20.58,-20.3
-4.72,-2.07,-9.57,-19.67,-19.67,-19.74
-4.35,-1.78,-9.93,-20.09,-20.09,-20.86
-4.4,-2.07,-10.08,-21.21,-21.21,-21.21
-4.43,-2.17,-9.94,-18.41,-18.41,-18.06
-4.19,-1.92,-9.69,-16.38,-16.38,-16.38
-3.87,-1.62,-9.64,-16.73,-17.08,-17.08
-3.79,-1.82,-9.85,-16.52,-16.52,-16.52
-3.91,-1.91,-9.75,-14.35,-14.35,-14.35
-3.98,-1.78,-9.57,-13.44,-13.3,-13.3
-3.68,-1.66,-8.87,-4.62,-4.48,-4.48
-3.4,-1.14,-9.1,-5.46,-7.21,-7.21
-3.18,-0.73,-9.42,-11.41,-12.39,-14.21
-3.15,-0.77,-9.73,-18.97,-18.97,-19.67
-3.04,-1.18,-9.77,-15.33,-15.33,-15.4
-2.91,-1.09,-9.84,-17.92,-17.85,-17.57
-3.05,-1.53,-9.73,-15.61,-15.12,-14.49
-3.22,-1.56,-9.87,-10.43,-9.38,-8.96
-3.32,-1.38,-10.05,-7.91,-7.91,-7.77
-3.5,-1.46,-9.91,-7,-7,-6.79
-3.72,-1.72,-9.77,-2.8,-2.8,-2.38
-3.79,-1.71,-10.02,0,0,0
-3.57,-1.58,-10.18,3.64,3.64,3.85
-3.34,-1.3,-10.26,4.55,4.55,4.69
-3.24,-1.16,-10.34,4.9,4.9,4.9
-3.35,-1.11,-10.37,4.48,4.41,4.48
-3.5,-1.23,-10.37,5.74,5.74,5.74
-3.7,-1.38,-10.3,7.84,7.84,7.84
-3.68,-1.45,-10.55,10.29,10.29,10.29
-3.63,-1.48,-10.45,12.95,13.44,13.44
-3.87,-1.75,-10.42,16.59,17.15,17.15
-4.31,-1.89,-10.3,20.79,20.79,21.49
-4.35,-1.64,-10.39,24.29,24.43,24.43
-4.13,-1.39,-10.75,22.61,22.61,21.77
-4.21,-1.61,-10.72,18.55,18.55,17.99
-4.55,-1.91,-10.59,17.22,17.22,17.22
-4.86,-2.08,-10.44,19.81,19.81,19.81
-4.83,-2.23,-10.2,22.26,22.82,22.82
-4.75,-2.29,-9.94,27.58,28.14,28.14
-4.85,-2.26,-9.7,32.34,32.34,32.9
-4.83,-2.16,-9.51,35.35,35.35,35.77
-4.73,-1.75,-9.36,35.56,35.56,35.21
-4.7,-1.73,-9.46,31.08,31.08,30.66
-5.02,-2.09,-9.43,28.77,28.77,28.49
-5.64,-2.79,-8.97,30.52,30.52,31.08
-6.37,-3.06,-8.67,34.65,34.65,34.65
-6.62,-3.08,-8.5,38.92,39.2,39.2
-6.94,-3.48,-8.3,26.04,26.04,26.04
-6.59,-3.19,-8.15,30.8,30.8,30.8
-5.68,-2.12,-7.74,31.01,31.01,31.01
-5.6,-1.92,-7.02,14.28,14.07,14.07
-5.49,-2.24,-6.69,13.51,13.16,13.16
-5.46,-3.16,-4.59,-2.52,-2.52,0.91
-7.13,-4.59,-3.86,18.13,20.86,20.86
-7.69,-4.37,-3.77,38.43,38.43,43.75
-7.69,-3.92,-4.7,17.29,17.71,17.71
-7.82,-4.21,-4.58,19.39,19.67,19.67
-8.95,-1.6,-2.49,16.38,16.38,16.38
-9.2,-5.76,-3.39,24.71,24.71,24.71
-10.05,-4.38,-2.69,39.13,41.86,41.86
-9.58,-4.25,-2.76,71.05,58.1,58.1
-9.06,-3.98,-2.98,65.03,65.87,65.87
-7.25,-3.96,-3.48,53.62,52.78,52.78
-7.04,-4.29,-2.53,47.11,47.11,46.41
-8.31,-3.79,-2.04,44.66,44.31,44.17
-7.95,-4.09,-1.15,43.12,43.12,43.12
-7.45,-4.18,-1.01,38.78,38.78,38.78
-7.36,-4.32,-1.25,29.75,29.75,29.75
-7.93,-4.98,-1.29,27.09,26.81,26.81
-7.8,-5.15,-1,27.51,27.51,27.65
-8.08,-5.54,-0.62,33.88,33.88,33.88
-8.71,-6.6,-0.26,44.87,44.87,49.28
-8.74,-7.69,0.12,67.06,67.06,74.06
-7.32,-5.66,0.19,93.87,93.87,93.87
-6.16,-3.51,0.01,92.82,87.15,87.15
-5.38,-2.52,0.19,66.01,66.01,66.01
-5.19,-2.81,0.94,46.83,44.8,40.67
-5.92,-3.98,1.42,33.46,32.55,32.55
-6.71,-5.42,2.23,29.4,29.47,29.47
-7.54,-6.32,2.68,29.75,29.82,30.17
-7.7,-7.04,2.84,33.11,34.09,34.09
-7.21,-5.94,2.91,41.51,41.72,41.72
-6.97,-5.17,2.93,41.37,41.37,41.37
-7.39,-5.05,2.91,36.54,36.54,36.54
-7.62,-5.26,3.31,34.3,34.3,34.3
-7.45,-5.35,3.66,34.58,34.51,34.51
-7.02,-5.02,3.32,33.04,31.85,31.36
-7.11,-5.41,3.16,28.7,28.63,28.63
-6.97,-5.05,3.46,26.18,26.18,25.27
-6.01,-3.98,3.74,17.92,14.42,14.42
-5.67,-3.72,3.92,3.5,3.5,-17.57
-6.68,-4.75,3.69,-5.04,-5.11,-5.11
-7.22,-5.52,3.96,-3.99,-3.99,-3.99
-7.15,-5.7,4.18,-3.71,-3.78,-3.78
-7.36,-5.78,3.83,-2.94,-2.45,-2.45
-7.95,-6.2,3.65,1.75,5.46,5.46
-7.97,-6.45,3.54,12.11,13.37,15.47
-7.3,-5.83,3.33,18.76,19.11,19.46
-7.18,-5.53,3.35,18.62,18.41,17.71
-7.27,-5.39,3.35,17.01,16.94,16.59
-6.84,-4.76,3.18,13.93,12.81,12.81
-6.56,-4.58,2.92,-0.42,-1.75,-1.75
-7,-5.47,3.12,-6.93,-6.86,-6.86
-7.81,-6.25,3.24,-3.78,-2.8,-2.8
-7.85,-6.18,3.08,1.4,1.4,1.61
-7.59,-5.89,2.92,2.03,1.96,1.89
-7.42,-6,2.85,2.24,2.87,3.22
-7.51,-6.14,3.04,6.3,6.3,7.7
-6.82,-5.24,2.96,2.38,2.38,0.91
-7.15,-5.7,3.02,-1.89,-1.89,-1.89
-7.26,-5.93,3.05,0.91,0.91,0.91
-7.14,-5.87,3.17,1.89,1.89,1.89
-6.87,-5.44,2.99,1.61,1.54,1.54
-6.92,-5.57,3.01,0.98,0.98,1.12
-6.87,-5.33,3.25,1.12,1.12,1.12
-6.75,-4.88,3.46,-5.25,-5.25,-5.25
-6.78,-4.27,3.22,-15.12,-18.83,-18.83
-7.03,-4.65,3.04,-28.21,-28.21,-30.03
-7.94,-6.06,3.16,-31.22,-31.22,-31.22
-8.53,-6.78,3.33,-21.56,-21.56,-20.16
-8.24,-6.54,3.5,-12.04,-10.01,-10.01
-7.77,-6.04,3.34,-6.02,-6.02,-5.04
-7.14,-4.87,3.43,-4.13,-4.13,-4.13
-6.14,-3.21,3.23,-13.3,-13.3,-17.08
-5.42,-2.23,2.83,-31.71,-31.71,-37.24
-5.06,-2.53,2.84,-53.48,-53.48,-53.48
-5.13,-3.39,3.45,-66.5,-66.5,-66.5
-5.77,-4.21,3.09,-69.02,-69.02,-69.02
-6.38,-4.56,2.21,-68.25,-68.25,-67.9
-7.74,-5.68,1.7,-66.36,-66.01,-65.1
-8.87,-6.52,0.95,-60.62,-59.5,-56.98
-9.63,-6.83,0.7,-49.7,-47.95,-47.95
-10.46,-6.28,0.73,-31.57,-30.03,-30.03
-10.48,-6.06,0.63,-22.54,-22.54,-21.7
-10.08,-5.78,0.05,-15.26,-15.26,-15.26
-9.63,-5.26,-0.29,-15.82,-41.16,-41.16
-10.27,-5.04,-0.18,-55.51,-55.51,-54.53
-10.43,-5.94,-0.26,-36.33,-36.33,-36.33
-10.06,-5.91,-0.39,-19.74,-19.74,-17.22
-9.57,-5.38,-0.28,-2.52,-2.52,-2.52
-8.82,-5.02,-0.16,2.45,3.71,3.71
-7.68,-3.86,-0.1,5.39,5.39,4.69
-7.34,-2.54,0.38,-28.84,-28.84,-28.84
-7.37,-3.18,-0.5,-45.43,-45.43,-45.43
-7.37,-4.22,-1.2,-45.43,-45.43,-45.43
-7.6,-4.93,-1.3,-39.34,-39.34,-39.34
-8.75,-4.41,-1.11,-31.36,-31.36,-31.36
-8.63,-5.31,-0.95,-34.65,-32.2,-32.2
-10.02,-2.05,-0.33,-23.38,-23.17,-23.17
-9.13,-1.92,-1.32,-21.14,-23.24,-23.24
-8.68,-3.91,-1.96,-26.74,-26.74,-27.09
-8.59,-3.69,-2.24,-21.63,-21.63,-21.49
-8.15,-3.39,-2.32,-24.5,-24.5,-24.5
-8.31,-3.03,-2.28,-30.52,-30.52,-30.52
-8.35,-3.78,-2.32,-31.85,-31.85,-31.22
-8.25,-4.11,-2.62,-23.66,-23.66,-23.66
-9.14,-2.62,-2.58,-27.65,-27.65,-27.65
-8.51,-3.09,-2.92,-33.95,-33.95,-33.95
-8.91,-3.36,-3.07,-36.33,-36.33,-36.33
-9.33,-3.58,-3.23,-35.35,-35.35,-35.35
-8.21,-4.73,-5.11,-13.16,-10.92,-10.92
-8.49,-2.23,-4.24,-24.43,-29.05,-29.05
-7.5,-4.05,-4.34,-28.49,-28.49,-28.49
-8.33,-3.53,-4.37,-27.09,-27.09,-28.63
-8.53,-4.21,-4.6,-30.66,-30.1,-30.1
-9.24,-1.42,-4.11,-10.78,-10.78,-11.97
-8.43,-4.42,-4.51,-11.27,-9.03,-7.91
-7.59,-2.14,-4.33,-5.39,-5.39,-5.39
-7.8,-2.5,-5.05,-10.15,-10.15,-10.15
-8.03,-2.36,-5.75,-17.78,-17.78,-17.78
-7.45,-3.14,-5.02,-13.86,-13.3,-13.3
-8.67,-2.64,-5.96,-4.34,-4.34,-4.97
-6.01,-2.18,-6.01,-10.29,-10.29,-10.29
-6.26,-1.91,-6.46,-17.57,-17.57,-17.57
-5.56,-2.3,-6.62,-19.46,-19.46,-19.46
-5.73,-2.59,-6.42,-15.82,-15.82,-15.05
-6.27,-2.61,-6.55,-10.71,-10.71,-10.08
-6.71,-2.31,-6.95,-6.02,-6.02,-6.02
-7.16,-2.15,-7.01,-3.29,-3.29,-3.29
-7.16,-1.94,-7.03,-2.59,-2.66,-2.66
-6.93,-2,-7.25,-5.25,-5.25,-5.46
-6.71,-1.93,-7.7,-6.51,-6.51,-6.65
-5.78,-2,-8.12,-9.73,-9.73,-9.52
-5.53,-1.88,-8.16,-7.84,-7.84,-7.63
-5.22,-1.46,-8.26,-6.44,-6.44,-6.44
-4.91,-1.35,-9.79,-7.14,-7.14,-7.14
-4.97,-1.5,-8.61,-7,-7,-7
-5.25,-1.72,-8.41,-5.53,-4.9,-4.9
-5.44,-2.25,-8.63,-0.91,-0.91,-0.91
-5.32,-2.32,-8.84,4.76,4.76,4.76
-5.13,-2.06,-8.74,7.63,7.63,7.63
-5.22,-1.71,-8.82,7.14,7.14,7.14
-5.38,-1.62,-8.93,2.8,2.8,2.8
-5.49,-1.09,-9.25,-4.48,-4.48,-6.02
-5.14,-1.21,-9.28,-13.3,-14.14,-14.14
-4.8,-1.58,-9.13,-17.36,-17.36,-17.43
-5.25,-1.64,-8.87,-18.2,-18.41,-18.48
-5.36,-1.79,-8.45,-17.5,-17.5,-17.5
-4.77,-1.75,-8.63,-12.95,-12.95,-12.95
-4.02,-1.5,-9.01,-9.59,-9.03,-9.03
-4.01,-1.42,-9.3,-6.72,-6.65,-6.65
-4.2,-1.1,-9.54,-8.26,-8.26,-9.38
-4.47,-0.85,-9.61,-13.16,-13.16,-13.93
-4.59,-1.41,-9.7,-10.01,-10.01,-10.78
-4.22,-0.86,-10.05,-15.4,-15.4,-15.4
-4.5,-1.37,-9.9,-16.73,-16.73,-16.73
-5.08,-1.62,-9.74,-13.37,-13.37,-13.37
-5.6,-1.95,-9.74,-10.43,-9.52,-9.52
-5.62,-2.06,-10.16,-6.44,-6.44,-5.88
-5.77,-2.4,-10.09,1.54,1.54,1.54
-5.85,-2.41,-9.99,8.75,8.75,8.75
-5.57,-2.03,-10.05,12.95,12.95,12.95
-5.04,-1.76,-10.07,14.98,14.98,14.98
-4.6,-1.58,-10.09,14.49,14.21,14.21
-4.27,-1.2,-10.16,9.94,8.96,8.96
-4.23,-0.8,-10.11,3.57,0,0
-4.49,-1.01,-9.68,-6.93,-6.93,-6.93
-4.92,-1.91,-8.97,23.03,22.33,22.33
-4.62,-1.48,-9.73,19.6,19.6,19.32
-4.99,-0.01,-9.24,16.24,16.24,16.24
-5.89,-1.03,-8.32,12.95,12.95,12.46
-6.96,-1.22,-7.64,14.77,14.77,14.77
-5.65,-2.17,-9.19,19.46,19.46,19.46
-5.38,-1.7,-9.5,16.8,16.8,16.8
-5.5,-0.68,-8.45,19.11,18.55,18.55
-5.81,-1.46,-9.22,13.79,13.79,12.25
-5.48,-1.19,-9.25,6.16,6.16,3.85
-5.2,-1.06,-9.13,-3.43,-3.43,-5.67
-5.21,-1.62,-8.99,-10.22,-10.22,-10.22
-5.69,-2.87,-8.77,-7.63,-7.63,-7.63
-6.39,-3.91,-8.6,10.29,10.29,10.29
-7.26,-4.55,-8.37,30.1,30.1,30.1
-7.65,-4.38,-8.16,55.79,58.24,58.24
-7.14,-3.37,-8.19,67.34,67.34,67.34
-6.29,1.12,-8.1,43.75,43.75,43.75
-7.71,1.12,-7.49,-1.47,-1.47,-1.47
-6.58,-3.22,-7.52,2.03,2.03,2.8
-6.58,-3.16,-7.21,7.28,7.28,7.28
-6.86,-3.53,-6.71,14.07,14.07,14.07
-7.19,-4.35,-6.51,26.53,26.53,26.53
-6.26,0.8,-6.12,28.42,28.42,28.42
-6.88,-2.02,-5.77,9.8,9.8,9.8
-6.24,-3.71,-5.19,21,21,21
-6.92,-3.61,-5.07,30.31,30.31,30.31
-8.65,0.84,-5.3,15.82,15.82,10.29
-6.97,-2.86,-5.52,7.07,7.07,7.07
-6.61,-2.61,-5.07,0.77,0.77,0.77
-7.22,-1.85,-4.73,-5.32,-7.84,-7.84
-7.87,-2.18,-4.68,-13.65,-13.65,-14.56
-8.37,-3.99,-4.97,-6.72,-6.72,-6.72
-9.83,-3.47,-4.43,9.1,12.11,12.11
-9.02,-3.55,-3.96,27.44,27.44,28.56
-8.25,-2.92,-4.34,30.38,30.38,29.68
-7.73,-2.54,-4.68,24.01,24.01,24.01
-7.85,-2.86,-4.12,21.49,21.49,21.49
-8.39,-3.36,-3.89,21.77,21.77,21.77
-8.26,-3.51,-3.39,22.75,22.75,22.75
-8.05,-3.38,-3.36,27.72,27.72,27.72
-8.59,-3.78,-3.34,32.83,34.3,34.3
-8.51,-3.63,-3.44,35.42,35.49,35.49
-8.69,-4.17,-3.48,36.33,37.1,37.1
-8.94,-5.19,-3.05,43.96,43.96,45.57
-8.59,-4.64,-2.28,61.32,61.32,61.32
-8.11,-3.4,-2.25,65.24,64.75,64.75
-7.44,-2.34,-2.32,54.11,36.19,51.87
-7.27,-2.59,-2.18,31.92,31.92,31.92
-7.97,-3.97,-1.99,23.17,22.75,22.75
-8.09,-4.45,-1.67,21.63,21.63,21.63
-8.14,-5.05,-1.26,24.15,24.15,24.78
-8.31,-5.78,-0.79,33.74,33.74,33.74
-8.29,-5.85,-0.75,43.33,43.33,43.33
-7.62,-4.91,-0.89,51.87,51.87,51.87
-6.9,-4.25,-0.64,50.75,50.75,50.75
-6.92,-4.45,0.05,43.82,42.98,42.98
-7.31,-4.53,-0.15,36.61,35.63,35.63
-7.26,-4.66,0.44,30.59,30.17,30.17
-7.52,-5.34,1.12,30.03,30.03,30.8
-7.88,-5.4,1.58,36.89,39.69,40.88
-7.65,-4.43,1.77,45.43,45.78,45.5
-6.67,-3.88,1.83,40.25,39.13,39.13
-6.55,-4.5,2.01,31.01,31.01,30.31
-7.22,-4.93,1.81,27.3,27.3,26.81
-7.28,-4.23,1.67,22.47,22.47,21.49
-7.16,-4.6,2.29,15.47,15.47,15.47
-7.67,-5.94,2.37,15.33,16.24,16.24
-8.45,-6.68,2.34,22.47,22.47,24.99
-7.65,-5.25,2.37,36.12,36.12,36.12
-6.97,-4.88,2.98,36.96,36.96,36.96
-7.23,-4.77,3.14,33.74,31.5,31.5
-6.56,-3.73,3.01,22.54,22.54,18.69
-5.95,-3.22,2.9,7.07,7.07,7.07
-6.44,-4.48,3.24,-3.78,-3.78,-3.78
-7.66,-5.23,3.31,-4.48,-4.48,-4.48
-8.15,-5.59,3.1,-5.32,-5.81,-5.81
-8.29,-5.96,2.86,-5.67,-5.67,-4.97
-8.66,-6.47,3.05,0.35,0.35,4.27
-8.66,-6.08,3.07,10.57,10.57,11.62
-7.9,-4.98,2.86,13.79,13.79,13.16
-7.28,-4.64,3,8.61,8.61,6.16
-7.16,-4.69,3.06,2.59,2.1,2.1
-7.44,-4.71,3.22,-0.28,-0.28,-0.7
-7.29,-4.61,3.11,-5.88,-5.88,-8.89
-7.04,-4.74,3.17,-12.95,-12.95,-14.07
-7.57,-5.52,3.28,-14.21,-14.21,-14.21
-7.78,-5.73,3.18,-11.97,-11.97,-11.97
-7.21,-5.01,2.92,-12.6,-12.6,-12.6
-6.84,-4.66,2.82,-15.26,-15.26,-15.26
-7.22,-5.2,2.99,-15.19,-14.77,-14.77
-7.35,-5.44,2.92,-13.65,-13.58,-13.16
-6.87,-4.58,2.66,-14.84,-14.84,-15.4
-6.71,-4.04,2.28,-23.24,-23.24,-23.24
-7.38,-4.58,1.98,-31.71,-31.71,-31.71
-7.77,-5.19,2.01,-37.38,-37.38,-37.38
-20.4,8.29,-3.46,-56,-55.86,-55.86
-8.12,-5.28,0.47,-57.54,-57.12,-57.12
-7.48,-5.55,0.76,-52.57,-52.57,-52.57
-7.17,-5.19,1.16,-43.05,-43.05,-43.05
-7.06,-4.76,1.49,-39.41,-38.57,-38.57
-6.73,-4.37,1.36,-37.73,-37.73,-37.73
-6.92,-3.45,0.44,-41.86,-41.86,-41.86
-7.69,-5.2,0.17,-75.39,-75.11,-75.11
-8.04,-6.02,0.32,-67.76,-67.76,-67.76
-9.11,-6.94,0.58,-73.29,-73.29,-73.29
-11.73,-6.33,0.26,-66.15,-66.15,-66.15
-10.57,-4.87,-0.47,-55.58,-55.58,-55.58
-9.6,-4.99,-0.58,-45.57,-42.56,-42.56
-6.53,-5.96,-3.08,-14.91,-12.32,-12.32
-6.49,-3.13,-2.1,-17.29,-17.29,-17.29
-6.39,-3.61,-2.06,-26.39,-26.39,-26.39
-7.59,-2.79,-2.13,-34.93,-35.91,-35.91
-8.25,-4.33,-2.71,-31.78,-31.78,-29.12
-8.98,-4.44,-2.71,-20.51,-20.51,-20.51
-9.33,-3.97,-3.2,-12.32,-12.32,-12.32
-9.85,-3.53,-3.61,-14.14,-14.14,-14.14
-9.77,-3.46,-3.95,-14.77,-14.77,-14.77
-9.51,-4,-3.83,-11.41,-8.61,-8.61
-8.82,-4.44,-3.81,-1.96,-1.96,-1.96
-7.96,-4.24,-3.9,5.46,5.88,5.88
-7.43,-3.01,-3.69,5.18,2.59,2.59
-6.75,-2.98,-4.11,-2.52,-3.43,-5.18
-6.61,-2.9,-4.64,-12.81,-12.81,-10.57
-6.88,-3.55,-4.41,1.61,1.61,1.61
-6.41,-2.52,-5.36,-14,-14,-14
-7.46,-2.91,-5.32,-11.41,-12.46,-12.46
-7.11,-3.99,-5.87,-16.1,-16.1,-16.17
-8.69,-4.17,-6.36,-18.06,-17.43,-16.94
-8.46,-3.89,-6.36,-17.08,-17.15,-16.87
-8.12,-4.04,-6.08,-14.49,-14.49,-13.09
-7.15,-3.39,-5.48,-5.74,-5.74,-5.74
-6.7,-3.22,-5.82,-6.44,-6.44,-6.44
-6.41,-2.9,-6.25,-10.36,-10.36,-10.36
-6.03,-2.62,-6.34,-15.68,-16.17,-16.17
-5.68,-3.08,-6.44,-18.2,-17.64,-17.64
-5.47,-3.56,-6.92,-16.38,-16.03,-15.61
-5.47,-3.87,-7.26,-13.51,-12.95,-12.95
-5.75,-3.85,-7.34,-8.33,-8.33,-9.66
-6.72,-3.97,-7.14,1.26,1.26,1.26
-6.22,-3.63,-7.37,6.3,6.3,6.3
-5.97,-3.14,-7.43,4.83,4.83,4.83
-5.46,-2.77,-7.68,3.08,2.45,2.45
-5.1,-2.77,-8.56,-3.22,-3.22,-3.22
-5.3,-3.06,-9.05,-12.25,-12.25,-12.25
-5.61,-3.1,-9.01,-20.58,-20.58,-20.58
-5.69,-3.27,-8.82,-22.82,-22.82,-22.82
-5.63,-2.97,-8.94,-23.1,-23.24,-23.24
-5.25,-3.33,-9.21,-23.87,-23.59,-23.59
-5.33,-3.72,-9.11,-20.09,-20.09,-19.18
-5.37,-3.91,-8.87,-10.08,-10.08,-8.82
-5.2,-3.9,-8.65,-2.8,-0.42,0.77
-4.68,-3.81,-8.43,6.51,6.51,8.61
-4,-3.3,-8.37,13.23,13.23,13.23
-3.7,-2.75,-8.43,11.27,10.71,10.71
-3.66,-2.19,-8.38,4.97,3.78,3.78
-3.66,-1.98,-8.69,-6.23,-6.23,-7.56
-3.48,-2.03,-8.99,-14.07,-16.8,-18.13
-3.41,-2.25,-9.51,-27.44,-27.44,-27.44
-3.88,-2.88,-9.7,-35.14,-35.49,-35.49
-4.71,-3.26,-9.56,-34.65,-34.65,-34.65
-5.1,-3.61,-9.58,-28.49,-28.49,-26.32
-5.22,-3.99,-9.72,-17.29,-15.75,-15.75
-5.13,-4,-9.94,-4.34,-4.34,-3.43
-5.11,-3.88,-10.12,2.31,2.31,3.15
-5.39,-3.79,-10.4,8.33,8.33,8.33
-5.42,-3.72,-10.47,12.18,12.18,12.18
-5.13,-3.62,-10.43,16.87,16.87,17.64
-5.06,-3.97,-10.13,21.7,22.33,22.33
-5.16,-4.11,-10.13,27.3,27.3,28
-5.13,-3.6,-10.05,30.8,30.8,31.08
-5.01,-1.49,-9.68,25.13,25.13,23.87
-4.69,-1.89,-9.71,16.1,16.1,15.19
-4.69,-3.45,-9.4,13.79,13.79,14
-5.17,-3.9,-9.33,15.96,15.96,15.96
-5.19,-4.14,-9.3,17.78,17.78,17.78
-5.13,-4.29,-9.3,21.49,21.49,21.49
-5.32,-4.53,-9.15,25.2,26.11,26.11
-5.38,-3.68,-8.93,27.02,26.67,26.67
-5.01,-2.73,-8.89,18.48,17.57,17.57
-4.74,-3.59,-8.43,13.58,13.58,13.51
-5.65,-3.65,-8.07,13.09,13.09,13.09
-6.78,-3.99,-8.03,13.37,13.37,13.37
-6.78,-4.49,-7.71,18.2,18.2,18.2
-6.62,-4.59,-7.57,25.34,26.46,28.7
-6.41,-3.94,-7.42,34.37,34.37,34.72
-5.68,-3.19,-7.34,30.8,30.8,30.8
-4.92,-2.45,-7.24,22.19,18.76,18.76
-4.82,-3.02,-7.03,10.5,10.5,9.1
-7.1,-4.23,-5.69,15.61,15.61,15.61
-7,-4.38,-5.74,24.78,24.78,24.78
-6.9,-3.61,-5.74,26.04,26.04,26.04
-6.27,-3.68,-5.93,23.59,23.59,21.56
-7.7,-4.71,-7.16,8.19,8.19,8.19
-8.05,-2.8,-5.36,-1.12,-1.12,-1.12
-7.47,-4.3,-5.25,-2.66,-0.56,-0.56
-8.52,-4.67,-4.31,5.18,6.44,9.38
-6.09,-2.97,-3.81,27.58,27.37,27.37
-4.38,-2.17,-3.92,8.82,6.44,6.44
-4.77,-1.95,-3.91,-9.38,-9.38,-12.11
-7.11,-3.35,-3.7,-25.2,-25.2,-25.41
-8.98,-5.28,-2.99,-18.83,-18.83,-14.77
-10.25,-6.48,-2.21,9.1,9.1,9.1
-11.28,-6.97,-1.81,38.78,53.2,53.2
-8.67,0.54,-4.85,73.5,69.58,63.98
-6.28,-2.75,-2.21,49.35,49.35,46.55
-6.23,-4.34,-1.49,29.33,29.33,26.53
-9.49,-5.73,-1.38,37.59,37.59,38.5
-7.62,-5.45,-0.97,44.66,44.66,45.92
-8.66,-4.57,-1.49,47.67,47.67,47.67
-7.69,-5.56,-0.55,48.65,48.65,49.07
-8.03,-5.37,-0.71,52.78,52.85,52.85
-7,-4.9,-0.22,52.08,52.08,51.03
-6.62,-5.13,-0.34,45.5,45.5,45.5
-6.59,-5.73,0.36,47.74,47.74,47.74
-6.42,-5.31,0.71,57.12,57.61,57.61
-6.59,-5.18,0.53,57.68,57.54,57.54
-6.73,-5.48,0.73,54.6,54.6,54.18
-6.09,-4.92,0.99,51.94,50.75,49.91
-5.68,-4.25,1.66,41.16,41.16,39.55
-5.98,-4.37,1.44,31.15,28.42,27.37
-7.18,-5.91,1.76,26.95,27.86,27.86
-8.27,-7.69,2.7,40.46,42.91,47.67
-8.93,-7.51,2.13,58.17,58.17,59.92
-8.58,-6.34,2.09,67.83,67.83,67.97
-7.55,-5.55,2.39,66.5,66.5,66.08
-6.09,-4.57,2.75,58.38,58.38,56.7
-4.65,-2.9,2.93,45.99,40.88,38.22
-4.75,-3.18,3.15,23.87,23.87,21.21
-5.71,-4.49,3.15,4.13,4.13,2.87
-6.36,-5.17,3.61,-3.15,-3.15,-3.08
-6.61,-6.08,4.13,0.49,0.49,1.54
-7.03,-7.03,4.25,8.4,11.41,12.81
-6.94,-6.79,3.95,20.16,20.93,20.93
-6.77,-6.3,3.89,23.52,23.45,23.45
-6.43,-5.67,4.03,21.28,21.28,20.93
-6.01,-4.96,4.04,19.53,18.76,18.34
-6.14,-5,4.19,15.19,15.19,12.67
-7.19,-5.78,4.33,7.28,7.28,7.28
-7.66,-6.3,4,8.19,8.19,8.19
-7.46,-6.22,3.76,12.04,13.44,13.44
-6.91,-5.58,3.46,16.66,16.66,17.5
-6.91,-5.6,3.78,18.55,18.34,18.34
-5.97,-4.1,3.25,2.73,2.73,2.73
-6.22,-4.78,3.8,-19.32,-19.32,-19.32
-6.29,-4.54,3.22,-29.4,-29.4,-30.1
-6.49,-4.48,2.59,-33.32,-33.32,-33.67
-6.98,-5.45,2.78,-33.46,-33.46,-32.69
-7.41,-6.67,3.39,-21.28,-21.28,-19.95
-7.63,-6.41,3.59,-11.55,-11.55,-10.5
-6.93,-5.6,3.49,-7.7,-7.7,-7.7
-5.85,-4.31,3.07,-13.23,-13.23,-13.23
-5.19,-3.86,2.84,-19.39,-22.89,-22.89
-5.66,-4.58,2.94,-31.43,-31.43,-31.43
-6.36,-4.96,3.11,-41.51,-41.51,-41.51
-6.5,-4.3,2.96,-44.17,-44.17,-44.17
-6.59,-4.67,3.04,-49.56,-50.26,-50.26
-6.37,-5.1,2.36,-55.58,-56,-56
-6.65,-5.11,2.01,-57.12,-57.12,-57.12
-7.11,-5.02,2.07,-56.56,-56.56,-56.56
-7.45,-4.92,1.56,-57.75,-57.75,-57.75
-7.48,-5.26,0.89,-61.74,-62.93,-62.93
-7.95,-5.74,0.35,-64.96,-64.96,-64.68
-8.24,-5.5,0.14,-60.83,-60.06,-60.06
-8.48,-5.13,-0.22,-52.64,-52.64,-50.33
-8.38,-5.26,-0.96,-47.74,-47.74,-47.39
-23.33,8.99,-2.97,-79.24,-79.24,-79.24
-8.33,-6.79,-2.08,-73.64,-68.81,-68.81
-13.76,2.35,-1.77,-82.18,-82.18,-91.28
-9.17,-6.62,-2.26,-78.12,-78.12,-74.69
-8.67,-6.96,-2.13,-42.42,-42.42,-42.42
-8.72,-4.45,-2.03,-27.58,-30.66,-30.66
-9.36,-0.78,-2.23,-49,-49,-49.07
-7.56,-4.81,-3.14,-36.4,-36.4,-36.4
-8.27,-1.93,-3.13,-34.65,-35.49,-35.49
-8.35,-3.12,-3.81,-38.64,-38.43,-38.43
-8.47,-3.78,-4.24,-33.39,-33.39,-32.9
-8.98,-3.51,-4.39,-30.45,-28.77,-27.86
-9.46,-4.14,-4.4,-21.07,-21.07,-16.94
-9.37,-3.76,-4.33,-10.71,-10.71,-7.07
-8.63,-3.84,-4.47,1.26,1.26,1.26
-8.14,-3.63,-5.03,8.89,8.89,8.89
-7.45,-2.23,-5.18,5.74,4.76,4.76
-7.38,-2.34,-4.97,-3.5,-3.5,-3.5
-7.28,-2.82,-5.13,-10.08,-10.64,-10.64
-6.73,-3.01,-5.27,-17.85,-18.34,-18.34
-6.32,-2.4,-6.26,-35.7,-36.19,-36.19
-6.36,-3.26,-6.64,-37.73,-37.73,-37.17
-6.64,-2.37,-6.46,-24.71,-24.71,-24.71
-6.71,-2.28,-7.63,-21.63,-21.63,-22.26
-6.7,-2.14,-7.7,-26.95,-26.95,-26.95
-6.72,-2.74,-7.5,-26.25,-25.27,-25.27
-6.67,-2.93,-7.56,-19.53,-19.53,-19.53
-6.63,-2.23,-7.65,-9.94,-9.94,-9.94
-6.56,-2.4,-7.9,-7.91,-7.77,-7.77
-6.2,-2.1,-8.11,-8.05,-8.4,-8.4
-5.8,-1.87,-8.04,-9.31,-9.31,-9.52
-5.58,-1.84,-7.78,-9.1,-9.03,-9.03
-5.61,-1.85,-7.82,-7.49,-7.49,-7.56
-5.54,-1.65,-8.23,-8.75,-8.75,-9.1
-5.28,-1.55,-8.64,-14.91,-14.91,-14.91
-5.03,-1.51,-8.73,-18.48,-18.48,-19.25
-5.02,-1.54,-8.67,-20.37,-20.37,-20.37
-5.19,-1.76,-8.28,-18.2,-18.2,-18.2
-5.22,-1.86,-8.26,-14.98,-13.79,-13.79
-4.96,-1.76,-8.6,-10.64,-10.64,-9.59
-4.74,-1.12,-9.27,-8.19,-8.4,-8.4
-4.16,-0.59,-9.71,-18.48,-20.02,-20.02
-4.06,-0.87,-9.95,-23.45,-23.45,-24.22
-4.91,-1.42,-9.95,-24.15,-24.15,-24.15
-5.51,-1.67,-9.82,-22.19,-22.19,-22.19
-5.43,-1.47,-9.83,-21.63,-21.7,-21.7
-5.08,-1.37,-9.93,-21.21,-21.21,-20.72
-4.84,-1.34,-9.87,-17.78,-17.43,-17.43
-4.85,-1.4,-9.68,-15.26,-15.12,-15.12
-4.6,-1.23,-9.73,-13.86,-13.86,-13.79
-4.01,-1.13,-9.73,-13.65,-13.65,-13.58
-3.68,-0.95,-10.01,-15.82,-15.82,-15.82
-3.59,-1.02,-10.14,-19.6,-19.6,-19.6
-3.67,-1.08,-10.21,-25.83,-25.83,-25.83
-3.92,-1.43,-10.29,-26.18,-26.18,-25.83
-4.22,-2.18,-10.01,-15.47,-15.47,-15.47
-2.84,-0.63,-9.05,-1.4,-1.4,-1.4
-2.82,-0.64,-9.09,-1.19,-1.19,-1.19
-2.78,-0.61,-9.27,-0.28,-0.28,-0.28
-2.92,-0.34,-9.18,-0.07,-0.07,-0.07
-3.23,-0.31,-9.03,-0.49,-0.7,-0.7
-3.53,-0.35,-9.23,-0.42,-0.35,-0.35
-3.75,-0.28,-9.35,-0.77,-0.91,-0.91
-3.77,-0.21,-9.37,-2.03,-2.03,-2.1
-3.51,-0.1,-9.5,-2.73,-2.8,-2.8
-3.36,-1.22,-9.48,-5.18,-5.18,-5.39
-3.48,-0.46,-9.53,-6.02,-6.02,-6.02
-3.56,-0.8,-9.6,-4.62,-4.62,-4.62
-3.39,-0.52,-9.77,-4.13,-4.13,-4.13
-3.46,-0.34,-9.71,-5.04,-5.04,-5.04
-3.56,-0.45,-9.47,-7.49,-7.77,-7.77
-3.58,-0.65,-9.56,-9.24,-9.24,-9.24
-3.44,-0.77,-9.53,-9.87,-9.87,-9.87
-3.39,-1,-9.44,-6.44,-6.44,-5.88
-3.42,-0.89,-9.27,-3.5,-2.59,-2.59
-3.27,-0.82,-8.98,0.35,0.35,0.63
-3.2,-0.78,-8.81,1.75,1.75,1.89
-3.08,-0.4,-8.68,0.77,0.77,0.35
-2.94,-0.48,-8.66,-2.59,-3.29,-3.29
-3.01,-0.71,-8.6,-4.9,-4.9,-4.97
-3.1,-0.66,-8.38,-4.9,-4.9,-4.9
-3.25,-0.87,-8.29,-2.94,-2.73,-2.73
-3.5,-0.92,-8.18,0.56,0.56,0.91
-3.68,-0.84,-8.34,3.01,3.01,3.29
-3.67,-0.79,-8.82,6.23,6.23,6.23
-3.68,-0.83,-9.03,8.75,8.75,8.75
-3.62,-0.6,-9.4,9.73,9.73,9.73
-3.65,-0.56,-9.67,8.54,8.54,8.54
-3.83,-0.36,-9.81,5.53,5.53,5.53
-4.13,-0.45,-9.94,0.91,0.91,0.7
-3.85,-0.36,-9.99,-2.03,-2.03,-2.31
-3.8,-0.55,-9.78,-3.64,-3.64,-3.64
-3.46,-0.67,-9.38,-3.22,-3.22,-3.22
-3.05,-0.88,-9.2,-0.84,-0.14,-0.14
-2.83,-0.7,-9.14,0.98,1.05,1.05
-2.89,-0.63,-8.97,1.82,1.82,1.82
-3.19,-0.48,-9.15,3.29,3.29,3.29
-3.38,-0.56,-9.1,2.94,2.94,2.94
-3.53,-0.48,-8.98,1.33,1.05,1.05
-3.74,-0.34,-9.02,-0.98,-1.4,-1.4
-3.79,-0.29,-8.92,-4.62,-4.62,-4.97
-3.61,-0.39,-8.94,-6.37,-6.65,-6.86
-3.35,-0.62,-9.01,-7,-6.93,-6.79
-3.13,-0.67,-9.1,-5.81,-5.81,-5.04
-3.17,-0.78,-9.17,-3.36,-3.36,-2.87
-3.27,-0.88,-9.21,1.12,1.12,1.12
-3.44,-0.73,-9.15,2.66,2.66,2.87
-3.66,-0.78,-9.04,3.78,3.78,3.78
-3.92,-0.8,-8.97,6.09,6.09,6.09
-3.68,-0.5,-9.04,1.05,1.05,1.05
-3.55,-0.61,-8.91,0.7,0.7,0.7
-3.42,-0.67,-9.18,3.5,3.29,3.29
-3.44,-0.66,-9.22,2.59,2.73,2.59
-3.62,-0.66,-9.18,2.52,2.52,2.52
-3.78,-0.35,-9.32,1.75,1.4,1.4
-3.45,-0.7,-9.44,-0.49,-0.49,-0.49
-3.09,-0.85,-9.52,-0.63,-0.56,-0.56
-2.78,-1,-9.59,-0.28,0,0
-2.82,-1,-9.54,0.77,1.19,1.19
-4.22,-0.25,-9.34,2.52,2.31,2.31
-4.45,-0.11,-9.33,-0.14,-0.14,-0.63
-4.06,-0.5,-9.05,-3.99,-3.99,-4.48
-3.81,-0.49,-8.98,-4.9,-4.9,-5.32
-3.59,-0.53,-8.81,-5.67,-5.67,-5.67
-3.54,-0.72,-8.74,-5.39,-5.39,-5.39
-3.47,-1.1,-8.85,-2.94,-2.66,-2.66
-3.37,-1.04,-9.03,0.98,0.98,1.12
-3.44,-0.69,-9.19,2.1,2.38,2.52
-3.77,-0.64,-9.32,3.36,3.36,3.57
-4.02,-0.28,-9.35,3.92,3.92,3.85
-4.21,-0.3,-9.3,-0.07,-0.21,-0.21
-4.23,-0.35,-9.39,-1.12,-1.19,-1.19
-4.11,-0.26,-9.32,-2.45,-3.43,-3.43
-3.86,-0.48,-9.13,-4.69,-4.69,-4.76
-3.65,-0.33,-9.06,-6.09,-6.09,-6.09
-3.57,-0.38,-8.88,-6.79,-6.72,-6.72
-4.02,-0.65,-8.55,2.94,2.94,2.94
-4.16,-0.59,-8.48,6.58,6.93,6.93
-4.27,-0.44,-8.41,9.24,9.31,9.31
-4.15,-0.34,-8.37,9.52,9.52,9.52
-4,-0.37,-8.69,9.03,8.54,8.54
-3.93,-0.17,-8.82,7.07,6.86,6.09
-4.15,-0.34,-8.77,4.97,4.97,4.76
-4.14,-0.19,-8.83,1.82,1.82,1.82
-4.14,-0.47,-9.03,0.49,0.49,0.49
-3.86,-0.68,-9.16,0.7,0.7,0.7
-3.68,-0.6,-9.15,0.7,0.7,0.84
-3.77,-0.95,-9.23,2.8,2.8,3.08
-3.96,-0.56,-9.28,5.53,5.53,5.53
-4.15,-0.43,-9.23,6.09,6.09,6.09
-4.35,-0.42,-9.27,5.6,5.32,5.32
-4.46,-0.18,-9.28,3.08,2.66,2.66
-4.32,-0.23,-9.3,-0.98,-0.98,-1.33
-4.23,-0.37,-9.38,-3.78,-3.78,-3.78
-4.15,-0.21,-9.3,-7.63,-7.63,-7.63
-4.03,-0.34,-9.07,-10.36,-10.36,-10.36
-3.89,-0.63,-9.16,-9.66,-9.1,-9.1
-3.93,-0.53,-9.14,-7.91,-7.56,-7.56
-4.09,-0.53,-8.96,-6.02,-6.02,-5.32
-4.02,-0.63,-8.9,-2.52,-2.52,-2.52
-3.95,-0.46,-8.9,1.12,1.12,1.12
-3.77,-0.49,-9.03,2.24,2.24,2.24
-3.73,-0.34,-9.81,0.91,0.91,0.42
-3.96,-0.03,-10.13,-4.27,-4.27,-4.83
-4.54,-0.41,-10.42,-7.07,-7.07,-7.28
-5.04,-0.45,-10.9,-5.95,-5.95,-5.95
-5.5,-0.38,-10.82,-5.04,-5.04,-5.04
-5.81,-0.6,-10.61,-4.48,-4.48,-4.41
-6,-0.45,-10.53,-5.04,-5.18,-5.18
-5.83,-0.27,-10.54,-7.84,-8.26,-8.26
-5.63,-0.52,-10.35,-9.8,-9.8,-9.73
-5.26,-0.67,-10.26,-10.15,-10.22,-10.22
-5.13,-0.76,-10,-8.89,-8.33,-8.33
-5.3,-0.55,-9.67,-7.49,-7.49,-7.49
-5.31,-0.56,-9.35,-7.07,-7.07,-7.07
-5.43,-0.75,-9.32,-5.53,-5.53,-4.76
-5.45,-0.67,-9.38,-2.52,-2.52,-1.89
-5.86,-0.76,-9.16,-0.21,-0.21,-0.21
-6.38,-0.37,-8.83,-0.77,-0.77,-1.75
-7,-0.29,-8.33,-5.88,-5.88,-6.37
-7.42,-0.52,-7.94,-9.03,-9.24,-9.24
-7.68,-0.49,-7.77,-11.2,-11.2,-11.2
-7.58,-0.1,-7.72,-14.91,-14.91,-14.91
-7.47,-0.55,-7.48,-16.24,-16.24,-16.24
-7.94,-1.05,-6.96,-12.32,-12.32,-12.32
-8.42,-0.85,-6.49,-7.56,-7.56,-7.56
-8.52,-0.92,-6.13,-1.75,-1.75,-1.75
-8.99,-0.55,-5.44,4.62,4.97,4.97
-9.85,-0.05,-4.51,5.32,5.39,5.39
-9.03,-0.14,-3.61,6.93,6.93,6.93
-8.6,0.31,-2.99,6.72,6.72,6.72
-8.85,0.75,-2.76,1.4,0.28,0.28
-9.28,0.7,-2.58,-7.49,-9.59,-9.59
-9.56,-0.09,-2.08,-11.9,-11.9,-11.34
-9.6,-0.32,-1.07,-8.12,-7.63,-7.63
-8.81,-0.51,-0.49,-3.36,-2.59,-2.59
-7.93,-0.53,-0.25,2.17,4.69,4.69
-7.82,0.22,-0.29,6.58,5.74,5.74
-7.89,0.34,0.3,2.8,2.31,1.54
-7.14,-0.61,1.16,3.15,3.15,3.92
-7.16,-0.82,1.91,11.41,11.41,12.6
-7.25,-0.37,2.41,19.53,19.53,19.53
-6.32,0.11,2.85,21,21,21
-5.94,0.57,3.19,20.37,20.37,19.6
-5.76,1.27,3.8,15.05,15.05,15.05
-5.06,1.02,4.61,10.99,10.99,10.99
-5.9,2,6.48,14.35,15.54,15.54
-6.69,1.54,6.51,17.08,17.36,17.64
-7.13,1.53,6.8,17.71,17.64,17.5
-6.22,1.67,7.24,17.92,18.06,18.06
-5.03,1.76,7.48,19.46,19.67,19.81
-4.92,2.25,7.45,18.76,18.76,18.41
-5.2,2.57,7.5,13.37,13.37,12.95
-6.08,2.02,7.64,12.04,12.04,12.25
-7.03,1.47,7.38,14.49,15.4,15.89
-7.55,1.6,7.02,18.06,18.06,18.69
-7.76,1.78,7.1,20.65,20.93,21
-7.16,1.93,7.28,20.58,20.58,20.58
-6.04,2.53,7.18,14.42,12.11,12.11
-5.41,2.18,7.16,0.49,0,0.21
-5.81,3.21,7.12,-5.25,-5.25,-5.25
-6.69,2,7.24,-9.38,-9.38,-9.87
-7.03,1.8,7.38,-10.99,-10.99,-10.99
-6.99,2.18,7.23,-11.9,-11.9,-11.9
-6.48,1.78,7.03,-10.71,-10.43,-10.43
-6.24,1.63,6.96,-8.82,-8.82,-8.68
-5.57,1.66,6.88,-7.77,-7.42,-7.14
-4.65,1.53,6.67,-5.04,-5.04,-4.55
-4.42,1.81,5.95,-2.45,-2.45,-2.45
-5.04,1.94,5.6,-2.31,-2.31,-2.52
-5.34,2.11,5.53,-4.2,-4.2,-4.2
-5.52,1.92,5.34,-6.02,-6.37,-6.37
-6.11,2.35,5.03,-9.94,-9.94,-9.94
-6.89,2.48,4.41,-19.39,-19.39,-19.39
-7.77,2.44,3.95,-28.91,-28.91,-28.91
-7.83,2.09,3.54,-35.63,-35.63,-35.63
-7.48,1.27,3,-37.59,-37.59,-37.59
-7.16,0.75,1.99,-34.86,-34.51,-34.51
-7.99,0.98,1.68,-33.53,-33.67,-33.67
-8.44,0.47,1.28,-33.95,-33.88,-33.67
-8.53,-0.04,0.58,-31.22,-31.22,-30.8
-9.21,-0.04,-0.42,-26.25,-26.25,-26.25
-9.73,-0.01,-0.91,-24.01,-23.45,-23.45
-9.8,-0.21,-1.64,-22.19,-21.91,-21.91
-9.8,-0.23,-2.78,-21.91,-22.12,-22.12
-10.01,0.07,-3.61,-24.29,-24.99,-25.48
-10.01,-0.21,-4.08,-26.88,-26.88,-27.3
-10.04,-0.53,-4.55,-26.53,-26.53,-26.53
-9.56,-0.59,-5.05,-21.28,-21.28,-21.28
-8.86,-0.5,-5.68,-18.2,-17.43,-17.43
-8.04,-1.1,-6.24,-12.67,-12.67,-12.67
-7.69,-1.45,-6.71,0.07,0.07,0.07
-7.93,-1.28,-7.38,9.8,9.8,9.8
-8.33,-1.65,-7.22,17.78,17.78,17.78
-8.43,-1.52,-7.07,23.73,23.73,23.73
-8.56,-1.04,-7.25,25.55,25.55,25.55
-8.22,-1.34,-7.23,25.2,25.2,25.2
-5.36,-0.24,-8.24,11.41,9.87,9.87
-4.76,0.01,-8.21,-1.12,-2.59,-2.59
-7.14,-2.44,-7.92,28.07,28.07,28.07
-4.26,0.51,-8.07,7.35,3.29,3.29
-3.51,0.26,-8.43,-8.82,-8.82,-10.57
-4.65,0.1,-7.03,-17.01,-17.01,-17.01
-4.57,-0.92,-8.14,-17.29,-19.04,-19.04
-4.14,-0.07,-9.2,-17.64,-17.64,-17.64
-5.09,0.02,-10.89,-11.9,-11.9,-11.9
-5.63,0.02,-10.53,-11.76,-11.76,-11.76
-5.14,0.02,-8.63,-16.38,-16.38,-16.38
-4.4,-1.17,-8.18,-21.28,-21.14,-21.14
-3.81,-2.1,-9.72,-7.63,-5.74,-5.74
-3.49,-1.18,-11.08,5.04,6.23,6.23
-3.37,-1.06,-11.86,13.44,13.44,13.44
-3.68,-0.63,-11.56,17.22,16.73,16.73
-4.51,-1.12,-12.44,16.66,16.66,16.73
-4.78,0.02,-12.45,14.63,13.86,13.86
-4.92,-0.12,-12.58,8.82,8.82,8.4
-4.78,0.07,-12.52,4.13,4.13,3.01
-4.37,0.61,-11.95,-7.14,-8.61,-8.61
-4.06,0.58,-10.74,-19.6,-19.6,-20.58
-3.38,-0.08,-10.27,-23.8,-24.36,-24.64
-2.76,-0.19,-9.68,-25.55,-25.69,-25.48
-2.28,-0.67,-9.07,-23.94,-23.94,-22.26
-2.01,-0.97,-8.67,-18.13,-18.13,-17.15
-1.83,-0.73,-8.74,-8.19,-8.19,-8.19
-1.55,-0.68,-8.48,-0.84,-0.84,-0.84
-1.76,-0.97,-8.29,5.18,7.21,7.21
-2.56,-0.45,-8.32,10.99,11.34,11.34
-3.28,0.13,-8.71,10.71,10.71,10.08
-3.19,0.49,-8.9,5.46,5.46,5.46
-2.9,0.1,-9.1,0.42,0,0
-2.94,0.16,-9.5,-4.2,-4.69,-4.69
-3.26,0,-10.08,-5.88,-6.02,-6.02
-3.72,0.05,-10.01,-6.79,-6.79,-6.79
-4.08,-0.16,-10.17,-7.35,-7.35,-7.42
-4.24,0.18,-10.65,-9.87,-9.87,-10.43
-4.52,0.18,-11.18,-12.88,-13.93,-14.49
-4.73,0.08,-11.57,-16.17,-16.17,-16.8
-5.17,0.02,-12.41,-12.46,-12.46,-11.69
-5.36,-1.14,-12.36,-10.64,-10.64,-10.22
-5.56,-0.49,-12.29,-3.99,-3.99,-3.99
-6.03,-0.06,-12.31,0.14,0.56,0.56
-6.71,-0.01,-11.99,4.62,4.62,4.76
-7.12,0.5,-11.97,4.2,3.01,2.52
-6.3,0.6,-11.55,-0.84,-0.84,-2.31
-5.79,0.4,-11.16,-4.34,-4.34,-5.04
-5.56,0.81,-10.69,-11.34,-11.34,-11.9
-5.69,0.83,-10.34,-15.75,-15.75,-15.75
-6.34,0.59,-9.56,-16.52,-16.38,-16.38
-6.47,0.3,-9.05,-15.26,-14.77,-14.77
-6.18,-0.07,-8.18,-10.01,-9.24,-9.24
-6.12,0.06,-7.95,-5.32,-3.64,-3.64
-6.14,0.27,-7.39,-2.1,-2.1,-1.68
-6,0.09,-6.42,-0.98,-0.98,-1.05
-5.55,-0.22,-5.31,0.07,0.07,0.07
-5.35,-0.5,-4.51,4.41,4.41,4.41
-6.35,0.18,-3.91,7.98,7.98,7.98
-7.12,0.41,-3.17,2.87,2.87,2.87
-6.77,-0.19,-2.66,1.33,1.26,1.26
-6.98,1.28,-2.12,-5.67,-5.67,-5.67
-7.95,1.63,-1.19,-23.38,-23.38,-23.38
-8.82,0.78,-0.77,-32.2,-33.67,-33.67
-8.95,-0.43,-0.19,-34.86,-34.86,-34.58
-9.26,-0.08,0.22,-34.51,-34.51,-34.65
-9.87,0.27,0.36,-34.44,-34.44,-34.44
-10.72,-9.79,1.32,34.23,34.23,34.23
-8.63,0.36,0.54,25.76,25.76,24.5
-6.62,0.42,1.81,18.97,18.97,18.97
-7.01,0.78,2.54,13.44,12.46,12.46
-8.49,-0.23,3.03,7.91,8.19,8.54
-8.86,-0.36,3.52,10.64,10.64,11.2
-6.58,0.14,4.05,11.27,11.27,11.2
-4.45,-0.6,4.92,13.02,13.02,14.63
-3.69,-0.38,5.35,15.75,15.75,15.75
-3.4,0.8,6.11,5.74,5.74,5.74
-2.67,0.58,7.16,1.33,1.33,0.7
-3.08,0.42,8.48,0.28,0.28,0.28
-3.58,0.69,8.6,-1.05,-1.05,-1.05
-4.59,0.74,8.99,19.95,19.95,19.95
-5.7,1.35,9.15,16.31,15.82,15.82
-6.11,1.31,9.24,14.35,14.35,14.42
-5.43,0.8,9.36,18.48,19.67,19.67
-5.5,0.76,9.15,22.89,23.17,23.17
-5.53,1.47,9.07,20.86,20.86,19.95
-5.54,1.35,8.71,13.65,13.65,13.65
-6.15,0.73,8.27,8.89,8.89,8.89
-7.23,0.51,8.33,10.57,10.57,10.57
-6.75,0.95,8.24,12.32,12.18,12.18
-5.89,0.92,7.93,11.34,11.13,10.43
-5.31,0.73,7.84,8.33,8.33,7.98
-5.78,0.81,7.95,5.6,5.6,4.9
-6.81,0.57,7.75,0.14,0.28,0.28
-6.5,0.36,7.77,0.56,1.26,1.26
-6.56,0.47,7.37,3.01,3.5,4.06
-6.28,0.37,7.16,6.16,6.51,6.51
-5.98,0.38,6.89,9.03,9.24,9.24
-7.13,0.61,7.06,10.78,11.06,11.06
-6.96,0.67,6.91,13.93,13.93,14.07
-6.67,0.99,6.88,14.49,14.28,14.14
-6.28,0.91,7.11,13.02,13.02,12.53
-5.64,0.78,7.23,11.97,11.97,11.9
-5.32,1.27,7.11,10.15,10.15,9.8
-5.92,1.34,6.89,4.41,4.41,4.34
-5.78,0.83,7.37,4.2,3.78,3.78
-5.64,1.2,6.86,-1.12,-1.12,-1.12
-5.64,0.81,6.86,-1.12,-0.84,-0.7
-5.49,1.03,6.91,0.35,0.49,0.49
-5.59,1.33,6.74,1.82,1.82,2.03
-5.01,0.69,6.31,4.55,6.3,7.07
-4.95,0.33,5.81,12.32,14.07,14.84
-6.05,1.61,5.16,16.59,16.59,16.59
-7.03,1.74,4.59,11.83,11.34,11.34
-6.98,1.8,4,6.37,6.37,6.37
-7.38,1.5,3.52,1.47,1.47,1.47
-8.04,1.18,3.14,-3.36,-3.36,-3.36
-8.02,1.31,2.73,-6.93,-6.93,-6.93
-8.45,1.22,2.11,-10.78,-10.78,-10.78
-8.94,1.06,1.61,-11.27,-11.27,-11.27
-9.02,0.98,1.12,-12.04,-11.97,-11.97
-9.07,0.85,0.52,-10.5,-10.5,-9.94
-9.35,0.94,-0.27,-8.26,-8.26,-8.26
-9.76,1,-2.35,-11.9,-11.9,-11.9
-9.65,0.59,-3.22,-15.12,-15.12,-15.12
-9.61,0.27,-3.58,-15.4,-15.05,-15.05
-8.98,0.37,-4.07,-14.14,-14.14,-14.14
-8.12,0.51,-4.72,-14.21,-14.21,-14.21
-7.28,0.54,-5.33,-15.12,-15.61,-15.61
-6.42,0.61,-5.93,-16.66,-16.66,-16.94
-6.31,0.06,-6.34,-13.93,-13.93,-13.93
-6.05,0.08,-7.56,6.16,6.16,6.16
-6.39,0.16,-8.01,4.76,4.76,4.34
-6.59,0.18,-9.16,-8.61,-10.08,-10.08
-6.03,0.27,-9.44,-13.65,-13.65,-14.63
-5.71,0.44,-9.86,-18.06,-18.06,-18.06
-5.46,0.37,-10.52,-22.33,-22.33,-22.33
-5.69,0.7,-11.13,-23.94,-23.94,-24.15
-6.12,0.81,-11.5,-24.36,-24.36,-24.36
-6.35,0.59,-11.36,-20.93,-20.93,-20.93
-6.02,0.44,-10.26,9.66,11.2,11.2
-5.7,1.18,-9.96,13.51,13.51,13.79
-4.65,0.93,-10.16,14.35,14.35,14.35
-4.9,0.36,-10.33,18.69,18.69,18.69
-4.26,0.49,-9.99,16.59,16.38,16.38
-3.29,0.68,-9.98,14,14,13.65
-3.4,0.52,-9.86,12.32,12.32,12.32
-3.99,0.1,-9.65,12.67,12.67,12.67
-4.39,0.3,-9.37,13.58,13.58,13.58
-4.77,0.32,-9.33,13.23,13.23,13.09
-4.99,0.27,-9.39,12.25,12.25,12.25
-4.58,0.43,-9.54,9.94,9.94,9.94
-3.97,0.73,-9.41,5.6,5.6,5.6
-3.67,0.68,-9.32,0.49,0.49,0.49
-3.86,0.67,-9.16,-2.73,-3.64,-3.64
-4.24,0.63,-8.86,-5.95,-6.65,-6.65
-4.17,0.45,-8.89,-7.84,-7.84,-7.91
-4.1,0.42,-8.67,-8.05,-8.05,-8.05
-4.03,0.12,-8.61,-6.02,-6.02,-5.11
-4.02,0.02,-8.53,-1.75,-1.75,-1.75
-4.14,0.06,-8.7,3.22,3.22,3.22
-4.4,0.29,-8.77,4.41,4.41,4.27
-4.63,0.48,-8.89,3.5,3.5,3.5
-4.77,0.42,-8.88,3.5,3.5,3.5
-4.82,0.67,-8.9,3.08,2.52,2.52
-4.94,0.75,-8.99,-2.24,-2.24,-2.66
-4.83,0.48,-9.31,-3.15,-3.15,-3.15
-4.84,0.45,-9.43,-3.71,-3.71,-3.71
-5.3,0.37,-9.57,-3.08,-2.94,-2.94
-7.51,0.99,-11.45,-3.5,-3.5,-3.5
-7.83,1.01,-11.21,-9.03,-9.03,-9.03
-7.8,0.77,-11.18,-10.64,-11.13,-11.13
-7.33,0.87,-11.01,-12.88,-12.88,-13.3
-6.78,0.63,-10.5,-13.65,-13.65,-13.65
-6.22,0.44,-9.48,-11.97,-11.97,-11.97
-5.57,0.15,-8.99,-10.08,-10.08,-10.08
-5.66,0.06,-8.76,-8.05,-7.7,-7.7
-6.2,0.15,-8.38,-6.58,-6.44,-6.44
-6.5,-0.59,-8.06,-1.89,-1.89,-0.91
-6.64,-0.43,-7.42,7.07,7.07,7.49
-7.1,-0.15,-7.12,8.75,8.75,8.75
-8.08,0.22,-6.75,4.62,4.62,4.62
-8.74,0.01,-6.14,-2.87,-2.87,-2.87
-8.48,-0.01,-5.54,-8.89,-8.89,-8.89
-8.05,-0.13,-5.26,-11.9,-11.9,-11.9
-7.68,0.12,-4.66,-16.66,-17.22,-17.22
-7.49,-0.33,-4.18,-17.22,-16.66,-16.66
-7.68,-0.68,-3.68,-11.62,-11.62,-11.62
-7.82,-0.19,-2.74,-6.51,-6.51,-6.51
-7.97,0.01,-1.74,-2.73,-2.73,-2.73
-8.12,0.13,-1.04,-1.68,-1.68,-1.68
-8.32,0.36,-0.54,-1.54,-2.03,-2.03
-8.59,0.68,0.01,-5.95,-5.95,-5.95
-9.04,0.13,0.17,-9.73,-9.73,-9.73
-8.68,-0.13,0.59,-9.24,-9.24,-9.24
-8.25,0.54,1.02,-13.44,-13.44,-14.14
-8.08,0.47,1.29,-18.69,-19.32,-19.32
-8.46,0.19,1.48,-22.33,-22.61,-22.61
-9.39,0.12,1.69,-23.73,-23.87,-23.87
-9.52,0.09,1.89,-26.18,-26.18,-25.97
-8.49,-0.22,2.06,-18.83,-18.83,-18.83
-8.1,0.23,2.81,-17.43,-17.43,-17.43
-8.53,0.27,3.65,-16.73,-14.14,-14.14
-8.48,-0.18,3.74,-11.48,-11.48,-11.48
-8.36,-0.13,4.37,-4.69,-4.69,-4.69
-6.71,0.1,5.46,2.8,2.66,2.66
-6.11,0.7,5.94,-1.68,-2.1,-2.8
-5.7,0.38,6.51,-4.41,-4.34,-4.34
-5.04,-0.01,6.8,-2.94,-2.45,-2.45
-4.72,0.26,7.22,-0.07,0.07,0.07
-4.8,0.98,7.49,-1.33,-1.68,-1.68
-5.09,0.6,7.55,-3.01,-2.73,-2.52
-5.62,0.05,7.95,0.28,1.75,2.59
-5.6,0.06,8.14,7.28,7.28,10.15
-6.16,0.57,8.28,14.56,14.56,15.19
-6.07,1.27,8.04,15.82,15.82,15.68
-6.06,1.12,7.85,14.14,14.14,14.14
-5.51,0.67,7.86,13.58,13.58,13.58
-5.09,0.72,7.81,13.16,12.88,12.88
-5.18,0.93,7.62,11.76,11.41,11.41
-5.78,0.82,7.72,10.71,10.57,10.57
-6.03,0.64,7.82,10.92,10.92,11.06
-5.8,0.81,7.6,12.11,12.11,12.11
-5.96,0.66,7.56,14,14,14
-6.26,0.5,7.59,15.96,15.96,15.96
-6.15,0.86,7.48,16.1,16.1,16.1
-5.7,0.97,7.14,13.16,13.16,13.16
-5.82,0.75,7.08,11.62,11.13,11.13
-6.14,0.75,6.98,10.15,9.8,9.8
-6.08,0.87,6.72,8.89,8.89,8.61
-5.97,0.94,6.26,7,7,7
-5.86,0.95,5.95,5.32,5.32,5.32
-6.36,0.9,5.65,3.08,3.08,3.08
-7.13,0.9,5.36,2.38,2.38,2.38
-7.33,0.79,5,1.47,1.68,1.68
-7.61,0.72,4.57,3.29,3.43,3.43
-7.61,1.05,4.27,3.36,3.29,3.29
-7.79,1.17,3.83,2.38,2.24,2.24
-8.07,1.1,3.21,1.4,1.4,1.26
-8.58,0.62,2.45,2.87,3.92,4.48
-9.54,0.66,1.73,7.98,8.61,8.61
-10.14,0.78,0.94,12.6,12.6,13.09
-10.53,0.5,0.53,16.38,16.38,16.38
-10.72,0.56,0.02,19.88,19.88,19.88
-10.85,0.81,-0.34,18.83,18.83,18.83
-10.51,1,-0.5,14.84,14.84,14.84
-9.9,0.79,-0.74,8.75,8.12,8.12
-10.77,-0.45,-0.46,35.42,18.34,18.34
-8.5,0.46,-1.93,8.54,8.75,8.75
-8.34,0.25,-1.85,8.19,8.19,7.91
-8.48,0.3,-2.11,5.25,5.25,5.25
-9.09,0.16,-2.48,4.69,4.83,4.83
-9.38,0.49,-2.57,2.66,2.66,2.31
-9.17,0.23,-2.71,0.91,0.77,0.77
-9.38,-0.04,-3.06,0.98,1.12,1.12
-9.84,0.09,-3.79,6.79,7.14,7.07
-10.01,-0.02,-4.22,8.4,8.61,8.61
-9.88,0.18,-4.48,10.08,10.08,10.08
-9.46,0.59,-4.61,7.49,7.49,7.49
-9.38,0.5,-4.9,4.97,4.83,4.41
-9.14,0.36,-5.15,4.06,3.99,3.99
-8.53,0.39,-5,3.57,3.57,3.57
-8.25,0.35,-4.86,4.76,5.04,5.04
-8.36,0.31,-4.95,6.65,7.91,7.91
-8.28,0.66,-4.88,9.45,9.45,9.45
-8.12,0.38,-4.8,13.65,13.65,13.65
-8.01,0.45,-4.93,17.64,17.64,17.64
-7.5,0.57,-5.16,18.62,18.62,18.62
-6.95,0.86,-5.46,18.9,18.83,18.83
-7.08,0.97,-5.47,17.5,17.29,17.29
-7.37,0.87,-5.74,15.68,15.4,15.4
-7.4,0.7,-5.88,14.63,14.21,14.21
-7.09,0.67,-6.19,13.09,12.88,12.53
-7.14,0.49,-6.65,12.11,12.11,12.04
-8.08,0.1,-8.64,8.75,8.61,8.33
-8.17,0.72,-8.95,7.35,7.07,7.07
-8.18,0.72,-8.47,1.75,1.75,1.75
-7.62,-0.15,-8.33,4.27,4.27,4.97
-6.87,-0.19,-8.37,8.54,9.8,10.36
-6.06,0.37,-8.48,13.58,13.58,13.58
-6.19,0.18,-8.34,17.78,17.78,17.78
-6.12,-0.15,-8.28,21.42,21.42,21.42
-5.92,-0.02,-8.23,22.75,22.75,22.82
-5.52,0.02,-8.34,21.7,21.7,21.49
-5.24,-0.28,-8.22,19.74,19.74,19.46
-5.3,-0.48,-8.08,17.15,17.15,16.31
-5.69,-0.63,-7.99,13.93,13.93,13.93
-5.75,-0.9,-8.15,11.34,11.34,11.34
-5.39,-0.31,-8.25,6.16,6.16,6.16
-5.19,-1.15,-8,4.2,4.2,4.2
-4.85,-0.65,-8.26,-0.63,-0.63,-0.63
-4.85,-0.69,-8.66,-6.09,-6.09,-7.28
-4.87,-0.85,-8.93,-10.29,-10.64,-10.64
-4.72,-0.64,-9.29,-13.23,-13.23,-13.58
-5.04,-0.48,-9.81,-16.59,-16.59,-17.08
-6.03,-0.33,-10.32,-20.72,-20.72,-21.28
-6.66,-0.08,-9.98,-25.97,-25.97,-25.97
-6.7,-0.12,-9.69,-27.72,-27.93,-27.93
-6.38,-0.35,-9.51,-28.21,-28.42,-28.42
-6.01,-0.38,-9.49,-28.35,-28.21,-28.21
-5.76,-0.37,-9.6,-27.23,-27.23,-26.67
-5.43,-0.22,-9.67,-24.08,-24.08,-23.03
-4.89,-0.25,-9.55,-19.39,-18.62,-18.62
-4.74,-0.52,-9.2,-11.69,-11.69,-10.71
-4.94,-0.53,-9.05,-6.09,-4.34,-3.5
-5.16,-0.29,-9.07,1.05,1.05,1.26
-5.58,0.13,-9.15,0.84,0.84,0.35
-6.14,0.43,-9.04,-2.52,-3.78,-4.55
-7.11,0.42,-9.41,-8.33,-10.43,-11.41
-8.02,1.09,-10.06,-18.41,-18.41,-24.01
-8.64,1.9,-10.23,-34.79,-34.79,-37.03
-8.64,1.47,-10.24,-50.54,-51.73,-51.73
-9.3,-1.25,-9.48,-22.4,-22.4,-22.68
-7.41,0.04,-10.09,-24.36,-25.06,-25.06
-7.7,1.06,-9.88,-26.32,-26.18,-26.18
-7.24,1.35,-9.22,-25.34,-25.34,-24.85
-7.51,0.84,-8.16,-20.16,-20.16,-20.16
-7.87,0.22,-7.57,-7.98,-7.98,-7.98
-8,0.51,-7.19,-1.26,1.96,1.96
-7.94,0.69,-6.81,6.09,6.72,8.26
-7.29,0.3,-6.49,13.37,14.07,14.07
-7.01,0.24,-6.34,17.29,17.29,17.43
-7.44,0.43,-5.48,16.1,16.1,16.1
-8.3,0.21,-5.08,15.33,15.33,15.4
-8.75,-0.1,-4.57,16.73,16.73,16.73
-8.38,0.3,-3.71,14.98,14.98,14.98
-8.17,0.94,-3.17,3.22,3.22,3.22
-8.53,1.07,-2.64,-9.8,-9.8,-9.8
-8.8,0.88,-2.33,-18.55,-21.07,-21.07
-8.84,0.35,-1.9,-26.04,-26.04,-27.09
-8.62,0.68,-1.24,-30.1,-30.1,-30.45
-8.46,0.69,-0.59,-32.97,-32.97,-33.39
-8.01,0.44,-0.03,-33.11,-33.11,-33.11
-7.92,0.12,0.78,-30.24,-29.89,-29.89
-7.74,0.26,1.19,-28.42,-27.58,-27.58
-7.7,0.29,1.77,-26.04,-25.48,-24.78
-7.65,-0.02,2.52,-21.7,-21.7,-21.28
-7.14,-0.13,3.08,-17.29,-17.29,-17.29
-6.75,-0.25,3.58,-14.56,-13.93,-13.93
-6.65,0.59,4.36,-15.12,-15.12,-15.12
-7.71,-1.74,4.69,1.47,3.71,3.71
-6.67,-0.41,5.13,8.61,9.03,9.03
-6.39,0.24,5.87,9.1,8.47,8.47
-6.09,-0.12,6.25,7.77,7.77,8.19
-5.74,-0.13,6.86,11.34,11.34,11.76
-5.61,-0.1,6.95,14.77,14.77,14.77
-6.02,0,7.54,18.48,20.09,20.09
-5.85,0.09,7.72,22.47,22.96,24.01
-5.21,0.01,7.94,26.67,26.67,26.95
-4.75,0.26,8.02,27.44,27.44,27.37
-5.27,0.77,7.83,26.6,26.6,26.46
-6.28,0.62,7.86,23.52,23.52,23.1
-6.82,0.19,7.98,22.75,22.75,22.96
-7.15,0.15,7.74,23.87,23.87,23.87
-7.48,0.49,7.62,21.98,21.28,21.28
-7.26,0.88,7.4,15.82,15.82,15.82
-6.97,0.94,7.25,8.47,8.47,8.47
-6.8,0.51,7.37,5.67,5.67,5.67
-6.3,0.19,7.37,5.46,5.53,5.53
-6.12,0.39,7.4,4.2,4.2,4.2
-6.36,0.83,7.51,-0.35,-0.35,-0.35
-6.66,0.71,7.37,-4.69,-4.69,-4.69
-7,0.26,7.44,-4.48,-4.48,-4.48
-6.98,0.06,7.49,-2.66,-2.66,-2.03
-7,0.45,7.55,-0.63,-0.77,-0.77
-6.71,0.69,7.58,-1.75,-2.03,-2.03
-6.38,0.51,7.52,-3.22,-3.29,-3.29
-6.29,0.44,7.35,-3.71,-3.71,-3.78
-6.24,0.26,7.21,-3.5,-3.5,-3.43
-6.07,0,7.14,-3.01,-2.73,-2.73
-5.89,-0.03,7.02,-1.19,-0.7,-0.7
-6.03,0.33,6.86,-0.63,-0.63,-1.05
-6.5,0.55,6.87,-3.71,-3.71,-4.06
-6.6,-1.42,7.33,11.83,11.83,11.83
-6.53,0.28,6.81,8.75,8.75,7.98
-6.17,0.11,6.66,7.14,7.98,7.98
-6.66,0.61,6.33,5.04,5.04,4.9
-7.47,0.45,6.04,2.38,2.38,2.38
-8.06,0.57,5.83,0.63,-0.35,-0.35
-8.26,0.85,5.62,-4.34,-4.34,-5.46
-8.21,0.46,5.28,-8.54,-8.54,-8.54
-8.01,0.48,4.94,-9.94,-10.08,-10.08
-7.94,0.26,4.52,-10.57,-10.57,-10.57
-8.03,-0.06,4.08,-8.05,-8.05,-6.58
-8.04,-0.14,3.56,-4.34,-4.34,-3.92
-7.73,0,3.09,-1.4,-1.4,-1.26
-7.76,-0.03,2.68,-0.28,-0.28,0
-8.03,-0.04,2.28,0.35,0.35,0.28
-7.99,0.02,1.85,-0.7,-0.7,-0.63
-7.94,-0.13,1.21,-1.12,-1.12,-1.12
-8.22,-0.09,0.68,-1.89,-2.31,-2.31
-8.66,0.07,0.28,-4.06,-4.06,-4.76
-8.99,-0.33,-0.67,-7.14,-7.14,-7.14
-9.49,-0.59,-1.17,-4.13,-4.13,-4.13
-9.6,-0.61,-1.8,-0.21,-0.21,-0.21
-9.45,-0.41,-2.22,2.1,2.73,2.73
-8.96,-0.17,-3.46,4.83,4.83,4.83
-8.66,-0.62,-3.66,7.63,7.63,7.63
-8.3,-0.5,-4.11,11.76,12.11,12.11
-8.02,-0.04,-4.82,13.72,13.72,13.65
-7.66,0.05,-5.17,13.16,12.81,12.53
-7.26,-0.13,-5.73,11.34,11.34,11.48
-7.37,-0.46,-6.26,12.18,12.18,12.39
-7.59,-0.48,-6.75,13.93,13.93,14.14
-8.63,-0.13,-8.08,13.79,13.51,13.51
-8.67,0.09,-8.16,11.27,10.99,10.99
-8.21,-0.09,-8.76,8.33,8.33,8.82
-7.97,-0.05,-8.8,9.03,9.03,8.82
-7.44,0.15,-8.76,7.42,7.35,7.35
-7.07,0.14,-8.55,6.3,6.09,6.09
-6.21,0.02,-8.26,5.32,5.32,5.32
-5.35,0.05,-7.87,5.39,5.39,5.39
-5.01,0.06,-7.73,4.62,4.48,4.48
-5.24,-0.31,-7.82,4.13,4.27,4.27
-5.13,-0.64,-8.05,5.32,6.23,6.23
-5.06,-0.43,-8.37,7.28,7.63,7.63
-4.94,0.03,-8.78,7.35,7.35,6.86
-5.47,0.74,-9.49,5.95,5.81,5.81
-6.04,0.94,-10.16,4.48,4.48,4.2
-6.05,-0.12,-10.31,3.22,3.22,4.2
-5.82,-0.11,-10.32,6.51,6.51,6.86
-5.66,0.76,-10.52,7.49,5.81,4.55
-5.55,1,-11.18,0.14,0.14,-0.91
-5.95,-0.43,-11.41,1.33,1.33,1.33
-5.88,-1.38,-11.39,10.99,10.99,10.99
-5.38,-1.33,-10.72,15.61,15.96,15.96
-4.94,-0.45,-9.68,13.72,12.53,12.53
-4.95,-0.39,-9.25,9.1,8.05,8.05
-4.62,-0.71,-8.85,5.74,5.74,5.18
-4.02,-0.69,-8.7,3.29,3.29,3.29
-3.5,-0.26,-8.3,-0.77,-0.77,-0.77
-3.45,-0.18,-7.89,-4.2,-4.2,-4.2
-3.34,-0.54,-7.77,-5.18,-5.18,-5.04
-3.45,-0.93,-8.11,-3.36,-3.36,-3.36
-4.29,-0.38,-8.6,-0.14,0.07,0.07
-4.97,-0.88,-8.79,2.52,2.52,2.94
-5.34,-0.9,-8.92,5.67,5.81,5.81
-5.53,-0.6,-9.71,3.78,3.78,3.36
-5.91,-0.8,-10.44,2.24,2.24,2.38
-6.3,-0.89,-10.73,2.59,2.73,2.94
-6.86,-0.82,-11.05,3.22,3.22,3.22
-7.15,-0.25,-10.99,-2.24,-3.43,-3.43
-7.33,-0.21,-11.09,-10.85,-10.85,-10.85
-7.29,-0.27,-11.16,-17.57,-17.57,-17.57
-6.96,0.01,-10.94,-25.2,-25.2,-25.2
-7.13,-0.11,-10.4,-28.07,-28.07,-28.07
-7.23,-0.53,-9.93,-28.77,-28.77,-28.77
-7.09,-0.64,-9.53,-27.37,-27.37,-27.37
-6.68,-0.34,-9.19,-27.09,-27.09,-27.09
-6.16,-0.22,-8.74,-27.37,-27.37,-27.37
-6.17,-0.5,-8.06,-24.36,-24.36,-24.36
-6.28,-1.05,-7.39,-15.19,-14.07,-14.07
-6.64,-1,-6.85,-7.14,-6.23,-6.23
-6.87,-0.66,-6.6,-2.73,-2.03,-1.61
-6.95,-0.03,-6.39,-1.54,-1.54,-1.54
-6.92,0.26,-5.95,-5.32,-5.74,-5.74
-8.37,-0.08,-5.09,-4.2,-4.2,-4.41
-8.66,0.06,-4.68,-4.9,-4.9,-5.04
-8.57,0.21,-4.24,-7,-7,-7.35
-8.37,0.33,-3.67,-11.06,-11.06,-11.55
-7.79,0.19,-3.18,-14,-14.21,-14.14
-7.6,-0.25,-2.68,-12.88,-12.88,-11.62
-9.09,0.46,-1.52,-5.04,-5.04,-5.04
-9.44,0.37,-1.28,-5.18,-5.74,-5.74
-9.3,-0.03,-0.84,-0.07,-0.07,-0.07
-9.64,0.3,0.21,2.45,2.87,2.87
-10.12,0.1,0.53,5.32,5.88,5.88
-9.89,0.56,0.93,7.77,7.98,8.19
-9.61,0.63,1.15,8.96,9.1,9.38
-9.31,0.63,1.76,9.87,9.8,9.87
-8.89,0.68,2.03,10.22,10.15,10.15
-9.04,0.93,2.63,8.54,8.26,8.26
-8.87,0.91,3.01,5.39,5.39,5.39
-8.58,0.42,3.29,3.43,3.43,3.43
-8.34,0.24,3.77,4.76,4.76,4.76
-8.41,0.36,4.27,5.6,5.6,5.6
-8.26,0.74,4.58,4.55,4.13,4.13
-8.15,0.78,4.9,1.4,0.49,0.28
-7.55,0.6,5.03,-0.98,-0.98,-1.05
-6.25,0.24,5.48,0.56,0.56,0.98
-5.85,0.48,5.96,4.34,4.34,4.34
-5.81,0.98,5.99,0.21,0.21,0.21
-6.04,0.85,6.42,-4.62,-6.3,-6.3
-5.04,0.06,7.23,-7.21,-6.86,-6.86
-4.22,0.32,7.37,-5.81,-5.81,-6.16
-6.1,1.88,7.39,-10.85,-14.14,-15.75
-5.17,1.75,7.26,-23.66,-23.66,-26.53
-5.13,-0.46,7.92,-25.27,-25.27,-24.15
-5.07,-1.34,8.88,-10.78,-10.78,-10.78
-5.8,0.31,8.19,-15.33,-15.33,-15.19
-6.61,-1.08,8.3,-9.31,-6.79,-6.79
-5.84,-2.05,8.33,2.31,2.31,5.74
-4.5,-1.86,8.37,20.65,20.65,20.65
-3.57,0.16,8.03,26.25,25.9,25.9
-4.83,1.03,8.02,22.82,21.14,21.14
-5.82,-0.57,7.89,21.91,21.91,21.91
-5.98,-1.33,7.75,31.01,31.01,31.01
-6.52,-1.01,7.82,36.82,38.15,38.15
-6.55,0.21,7.78,40.04,40.04,40.04
-6.65,1.43,7.76,32.13,32.13,32.13
-6.7,1.47,7.93,24.64,22.47,22.47
-5.81,0.89,7.89,16.66,16.66,15.05
-5.05,0.58,7.7,10.43,10.43,10.43
-5.23,0.46,7.7,3.36,3.36,3.36
-5.46,0.59,7.62,-0.49,-1.68,-1.68
-4.94,0.35,7.32,-1.54,-1.4,-1.4
-4.43,0.18,7.27,1.05,1.4,1.4
-4.24,0.33,7.02,1.19,1.19,0.84
-5.4,0.54,7.35,-6.02,-6.02,-6.02
-5.89,1.26,7.39,-11.41,-13.65,-13.65
-5.98,1.02,7.37,-19.39,-20.58,-20.58
-6.04,0.23,7.52,-21.84,-21.84,-21.84
-6.72,-2.15,6.84,0.28,0.28,25.13
-5.46,0.65,6.96,19.95,19.95,19.95
-4.92,1.15,6.11,9.8,9.8,9.8
-5.58,1.06,5.51,-2.66,-2.66,-2.66
-6.74,0.54,5.04,-8.05,-9.24,-9.24
-7.61,0.12,4.39,-9.66,-7.49,-2.17
-8.6,-0.25,3.91,13.86,13.86,13.86
-8.31,1.06,3.18,6.16,6.16,6.16
-8.32,1.88,2.15,-4.69,-4.34,-4.34
-8.91,1.13,1.83,-4.34,-4.34,-4.34
-9.86,0.9,1.61,-8.96,-8.96,-8.96
-10.78,0.69,0.62,-14.91,-14.91,-14.91
-11.43,0.81,-0.01,-17.92,-17.92,-17.92
-11.82,0.51,-0.45,-20.65,-20.72,-20.72
-11.98,0.22,-0.68,-20.93,-20.93,-20.93
-11.58,-0.26,-1.3,-19.11,-19.11,-19.11
-10.86,-0.6,-1.63,-13.23,-13.23,-13.23
-10.28,-0.79,-1.96,-7.63,-7.63,-7.63
-9.78,-0.81,-2.57,-3.22,-2.52,-2.52
-9.65,-1.5,-2.78,2.45,3.22,3.22
-9.58,-1.12,-2.9,8.05,8.4,8.4
-9.49,-1.25,-3.45,11.76,11.76,11.76
-9.43,-1.52,-3.72,14.42,15.12,15.12
-8.54,-0.51,-4.68,8.82,8.82,8.82
-8.85,-0.39,-4.7,3.15,1.61,1.61
-9.07,-0.32,-4.74,-2.31,-3.15,-4.62
-8.99,-0.33,-4.86,-10.01,-10.01,-10.01
-8.77,-0.46,-5.13,-15.19,-15.19,-15.82
-8.75,-0.75,-5.09,-18.69,-18.69,-19.04
-8.55,-1.13,-5.24,-19.88,-19.88,-19.88
-8.36,-0.97,-5.36,-19.32,-19.32,-19.32
-8.49,-1.04,-5.26,-18.27,-17.78,-17.78
-8.7,-1.32,-5.27,-15.54,-14.7,-14.7
-8.48,-1.39,-5.46,-11.55,-11.13,-11.13
-8.04,-1.36,-5.57,-6.93,-6.93,-6.37
-7.65,-1.48,-5.8,-2.31,-2.31,-1.82
-7.64,-1.46,-5.95,0.49,0.49,0.91
-7.01,-0.73,-6.01,3.64,3.64,3.64
-7.35,-0.41,-6.04,3.78,3.78,3.78
-7.43,-0.34,-6.11,3.01,3.01,3.01
-7.01,-0.34,-6.32,2.17,2.17,1.82
-6.58,-0.4,-6.58,1.19,1.19,1.19
-6.32,-0.31,-6.82,1.47,1.4,1.4
-6.48,0,-7.12,0.14,0.07,0.07
-6.75,0.12,-7.79,-0.91,-0.91,-0.91
-6.94,0.04,-8.67,0.28,0.28,0.49
-6.31,-0.22,-8.73,1.82,2.03,2.03
-5.52,-0.1,-8.26,1.05,0.07,-0.35
-5.8,-0.37,-8.34,-2.38,-3.29,-3.71
-5.74,-0.61,-9.07,-4.69,-4.69,-4.2
-5.87,-0.51,-9.47,-3.64,-3.64,-3.5
-6.31,-0.56,-8.74,-2.66,-2.66,-2.66
-4.38,-0.32,-7.86,-7.42,-7.56,-7.56
-4.11,-0.14,-7.89,-9.17,-9.24,-9.24
-4.36,-0.34,-8.03,-10.92,-10.92,-10.99
-4.45,-0.56,-8.34,-10.57,-10.57,-10.5
-4.51,-0.91,-8.89,-7.77,-7.77,-7.35
-4.56,-0.88,-9.17,-4.76,-4.76,-4.76
-4.14,-0.84,-9.61,4.97,4.97,4.62
-3.65,-0.94,-10.44,5.74,6.16,6.16
-4.06,-1.26,-10.47,9.1,9.1,9.45
-4.54,-1.22,-10.29,10.29,10.29,10.15
-3.98,-0.56,-10.3,5.88,4.62,4.62
-3.73,-0.45,-10.15,0,0,-0.49
-3.82,-0.46,-9.92,-6.02,-6.02,-6.02
-3.94,-0.65,-9.78,-8.89,-8.89,-8.89
-3.74,-0.89,-9.59,-9.87,-9.87,-9.8
-3.15,-0.88,-9.3,-6.23,-6.09,-6.09
-3.21,-0.88,-9.44,-4.62,-4.41,-4.41
-3.49,-0.71,-9.53,-3.71,-3.36,-3.36
-3.8,-0.76,-9.88,-2.87,-2.87,-2.73
-4.17,-0.69,-10.57,-3.15,-3.15,-3.36
-4.51,-0.53,-10.92,-6.02,-6.02,-6.58
-4.68,-0.96,-10.84,-10.71,-10.71,-7.14
-4.49,-0.33,-10.29,-8.68,-8.68,-8.68
-3.93,-0.32,-10.2,-9.66,-10.15,-10.15
-3.46,-0.76,-10.49,-7.84,-7.28,-7.28
-4.13,-0.83,-10.81,-5.46,-5.46,-5.46
-5.05,-0.65,-10.98,-3.71,-3.71,-3.71
-5.53,-0.55,-10.83,-2.59,-2.59,-2.59
-5.91,-0.9,-10.63,3.36,3.36,3.36
-6.47,-0.71,-10.4,11.27,11.27,11.27
-6.7,-0.37,-10.2,14.56,14.56,15.05
-6.54,-0.26,-10.08,15.68,15.68,15.68
-6.16,-0.31,-10.01,14.63,14.63,14.63
-5.79,-0.26,-9.88,11.48,11.48,10.22
-5.86,-0.23,-9.62,4.55,3.78,3.78
-6.35,-0.56,-9.26,-0.42,-0.77,-0.77
-6.93,-0.55,-8.77,-3.43,-3.43,-3.64
-7.39,-0.58,-8.47,-4.41,-4.41,-4.41
-7.71,-0.47,-8,-5.25,-5.25,-5.88
-8.02,-0.63,-7.4,-6.72,-6.72,-6.72
-8.06,-0.93,-7.29,-6.65,-6.65,-6.65
-8.1,-1.1,-6.8,-4.41,-4.41,-4.41
-8.17,-1.45,-6.45,-1.12,-1.12,-0.49
-8.32,-1.21,-5.6,3.64,3.64,3.71
-8.33,-0.49,-5.18,2.1,2.1,0.98
-7.99,-0.52,-4.49,-2.17,-2.17,-2.17
-7.59,-0.66,-3.31,-3.29,-3.29,-3.29
-7.81,-0.48,-2.77,-4.41,-4.41,-5.32
-7.93,-0.47,-2.25,-6.37,-6.37,-6.37
-7.71,0.04,-1.46,-6.79,-6.79,-6.79
-7.78,0.38,-1.05,-12.11,-12.11,-12.11
-8.25,-0.47,-0.58,-14.91,-14.91,-14.91
-8.6,0.28,0.19,-19.74,-19.74,-20.93
-8.71,-0.97,0.28,-19.67,-19.67,-17.85
-8.4,-0.85,0.94,-16.45,-16.45,-16.45
-8.93,-0.41,1.09,-20.79,-20.79,-21.28
-9.09,-1.05,1.12,-13.58,-13.58,-13.58
-8.8,-0.68,1.86,-11.34,-11.34,-11.34
-7.12,-0.98,2.96,-4.62,-4.62,-4.62
-6.43,-1.08,3.8,-2.8,-1.05,-1.05
-5.44,-1.05,4.01,0.91,1.26,1.26
-4.82,-1.41,5.23,6.44,6.44,7.14
-4.62,-1.52,6.01,10.92,10.92,12.18
-4.1,-1.29,6.83,14,14,14.42
-3.26,-1.18,7.6,14.91,14.91,14.91
-2.57,-0.7,8.02,13.58,13.58,13.58
-2.75,-0.31,8.08,7.98,7.98,7
-4.23,-0.37,8.08,1.61,1.61,1.05
-8.27,-1.96,8.55,4.34,4.34,5.25
-8.22,-1.53,8.62,9.66,10.71,10.71
-7.97,-1.09,8.42,12.95,12.95,13.3
-7.04,-0.98,8.17,13.23,13.23,13.23
-6.08,-1.02,7.98,12.25,12.25,11.48
-5.44,-0.86,7.98,9.73,9.73,9.59
-5.92,-0.42,8,23.38,23.38,22.61
-5.08,0.3,7.53,17.08,17.08,13.79
-6.03,-0.52,7.09,10.57,10.57,11.2
-6.27,-0.59,6.99,10.99,10.99,10.71
-6.75,-0.66,6.89,10.08,10.08,9.73
-7.74,-0.67,6.77,9.17,9.17,9.17
-8.13,-0.51,6.65,8.26,8.26,7.84
-8.17,-0.34,6.36,5.46,5.11,5.11
-7.83,-0.2,6.23,1.33,1.33,0.84
-7.21,-0.22,5.91,-0.49,-0.49,0.56
-6.83,-0.09,6.32,1.33,0.21,-0.35
-6.58,-0.11,6.3,-3.85,-3.85,-3.85
-7.02,-0.44,6.37,-5.18,-5.04,-5.04
-7.24,-0.71,6.41,-2.94,-2.66,-2.66
-7.34,-0.62,6.47,0.77,0.77,1.12
-7.35,-0.41,6.54,2.94,3.15,3.15
-7.21,-0.43,6.62,6.37,6.37,6.72
-7.16,-0.5,6.56,8.19,8.54,8.89
-7.02,-0.75,6.58,10.08,10.57,10.85
-6.66,-0.89,6.65,12.88,12.88,14.14
-6.32,-0.77,6.63,16.45,16.45,16.8
-6.36,-0.35,6.57,18.9,18.9,18.9
-6.75,0.01,6.55,16.94,16.59,16.59
-6.97,-0.27,6.56,13.58,13.58,13.58
-7.05,-0.65,6.56,13.44,13.44,13.51
-6.92,-0.44,6.75,13.51,13.37,12.95
-6.64,0.32,6.78,9.31,9.31,9.31
-6.28,0.6,6.78,0.84,0.14,0.14
-6.32,0.13,6.9,-4.34,-4.69,-4.69
-6.54,-0.5,6.92,-5.74,-5.81,-5.81
-6.64,-0.69,6.85,-4.97,-4.97,-4.76
-5.04,0.64,6.11,29.89,29.89,28.98
-5.05,0.69,5.21,16.73,16.73,17.64
-6.42,-0.3,4.92,23.52,23.59,23.59
-6.96,0.9,4.05,17.36,17.36,17.36
-8.04,1.13,3.23,4.69,4.69,4.69
-8.48,0.97,2.52,-4.97,-5.81,-5.81
-8.92,0.34,1.67,-10.5,-10.5,-10.5
-9.04,0.13,1.25,-11.34,-11.27,-11.27
-9.44,-0.18,0.89,-10.15,-9.24,-9.24
-10.02,-0.07,0.34,-7.84,-7.84,-7.84
-10.34,0.24,-0.37,-9.24,-9.45,-9.45
-10.91,0.36,-0.94,-10.78,-11.9,-11.9
-11.57,-0.51,-1.75,-7.91,-7.91,-7.91
-10.76,-0.26,-2.14,14.63,13.44,13.44
-11.09,-0.04,-2.51,10.57,12.11,12.11
-10.92,0.22,-2.98,15.47,15.47,14.56
-10.6,0.07,-3.37,14.84,14.84,14.84
-9.95,1.02,-3.77,8.54,8.54,7.63
-9.14,1.11,-4.34,2.1,2.1,1.26
-8.78,0.94,-4.48,-5.46,-5.46,-5.46
-8.05,-0.06,-5.1,-14.14,-14.35,-14.35
-7.77,0.36,-5.36,-18.13,-18.13,-18.13
-8.09,0.27,-5.44,-21.63,-22.61,-22.61
-8.79,-0.61,-5.83,-22.61,-22.61,-22.61
-9.03,-0.64,-5.96,-17.71,-17.71,-17.71
-8.78,-0.34,-5.92,-15.54,-15.12,-15.12
-8.37,-0.22,-6.25,-12.88,-12.88,-12.88
-7.89,-0.38,-6.59,-9.73,-9.73,-9.73
-7.37,-0.39,-6.88,-5.46,-4.9,-4.9
-7.21,-0.55,-7.03,-2.31,-1.75,-1.75
-7.14,-0.61,-7.03,3.92,4.62,4.62
-7.25,-0.51,-7.05,8.26,8.75,8.75
-7.52,-0.01,-6.99,9.66,9.66,9.66
-7.74,0.08,-7.24,9.03,9.03,9.03
-7.57,0.22,-7.53,6.72,6.72,6.72
-7.63,0.27,-7.47,4.27,4.27,3.15
-7.65,0.44,-7.67,-0.49,-0.49,-1.89
-7.75,0.45,-7.63,-6.16,-6.79,-6.79
-7.49,0.43,-7.47,-10.5,-10.5,-10.85
-6.97,0.13,-7.52,-13.16,-13.16,-13.23
-6.31,-0.14,-7.58,-10.71,-10.71,-10.71
-5.92,0.07,-7.62,-6.16,-5.81,-5.81
-5.83,0.22,-7.55,-4.34,-3.64,-3.64
-5.56,0.1,-7.6,-2.17,-0.91,-0.91
-5.29,-0.24,-8.01,4.34,5.11,5.11
-4.99,0.15,-7.99,8.61,8.61,8.68
-5.08,0.57,-7.97,10.15,10.15,10.15
-5.42,0.58,-8.03,10.64,10.64,10.64
-5.62,0.37,-8.26,12.74,12.74,13.02
-5.39,0.54,-8.54,13.93,14.07,14.07
-4.89,1,-8.78,13.09,13.09,13.09
-4.73,1,-8.93,9.87,9.66,9.66
-4.9,0.69,-9,8.12,8.19,8.19
-4.75,0.42,-9.3,7.84,8.05,8.4
-4.39,0.5,-9.62,10.01,10.01,11.13
-4.36,0.59,-9.76,12.67,12.67,13.37
-4.36,0.53,-9.84,14.42,14.42,14.56
-4.08,0.18,-9.95,16.59,16.59,17.01
-3.69,0.19,-9.97,17.99,17.99,17.99
-4.46,-0.34,-9.78,23.31,23.31,23.31
-4.51,-0.3,-9.71,24.99,24.99,24.99
-4.28,-0.35,-9.73,25.13,25.55,25.55
-4.04,-0.71,-9.82,27.86,28.07,28.07
-3.48,-0.22,-9.81,25.9,25.9,25.9
-3.44,-0.13,-9.92,22.33,21.49,21.49
-3.38,0.19,-9.79,14,13.16,13.16
-3.69,-0.01,-9.49,8.61,8.61,7.63
-3.33,0.31,-9.24,-1.75,-3.01,-3.01
-3.1,0.19,-9.18,-13.93,-13.93,-14.91
-3.06,-0.26,-9.35,-18.76,-19.95,-20.23
-3.13,-0.57,-9.7,-22.05,-22.05,-22.89
-3.44,-0.6,-9.9,-24.64,-24.64,-25.55
-4.13,-0.77,-10.11,-26.18,-26.18,-26.18
-4.76,-1.13,-10.62,-21.63,-21.63,-21.63
-5.03,-1.34,-10.93,-16.59,-14.84,-14.84
-5.24,-1.09,-11.13,-10.22,-10.22,-9.17
-5.76,-0.2,-11.33,-9.1,-9.1,-9.1
-5.49,-0.5,-11.39,-7.28,-7.28,-7.28
-5.32,-1.03,-11.44,-2.17,-2.17,-2.17
-6.22,-0.39,-11.15,8.96,8.96,8.68
-6.48,0.22,-11.12,4.48,4.48,4.48
-6.59,0.43,-10.66,-2.03,-2.03,-2.03
-7.61,-0.67,-9.83,-5.18,-4.48,-4.48
-7.76,-0.68,-9.22,-3.08,-2.94,-2.52
-7.54,-0.42,-8.47,-2.73,-2.73,-2.8
-7.33,-0.37,-7.63,-4.06,-4.06,-4.06
-7.36,-0.25,-6.9,-6.09,-6.09,-6.09
-7.21,-0.21,-6.22,-8.61,-8.61,-8.61
-7.05,-0.65,-5.82,-7.77,-7.77,-7.77
-6.96,-0.69,-4.85,-3.71,-3.71,-3.71
-7.03,-0.34,-4.07,-1.47,-1.05,-1.05
-7.26,-0.19,-3.29,2.38,2.38,2.38
-7.27,-0.35,-2.38,6.93,6.93,6.93
-7.28,-0.26,-1.76,9.17,9.59,9.59
-7.71,-0.56,-1.42,12.11,12.11,12.11
-8.03,-0.52,-0.98,11.83,11.55,11.55
-7.57,-0.6,-0.61,10.01,10.01,10.01
-7.28,-0.59,-0.14,7.35,7.35,7.35
-7.48,-0.92,0.36,6.16,6.16,6.16
-7.73,-0.93,0.68,6.51,6.51,6.51
-7.69,-0.63,1.21,6.16,6.02,6.02
-7.51,-0.41,1.68,4.83,4.41,4.41
-7.48,-0.61,2.31,4.69,4.69,4.69
-7.4,-0.69,2.8,6.79,6.79,6.79
-7.3,-0.56,3.35,8.96,8.96,8.96
-7.53,-0.91,3.85,12.04,12.04,12.6
-7.83,-0.77,4.38,15.96,15.96,15.96
-7.68,-0.26,4.69,16.52,16.52,16.52
-7.43,-0.16,5.02,15.33,15.33,15.33
-6.81,-0.14,5.33,13.37,13.23,13.23
-6.48,-0.12,5.92,10.92,10.92,10.64
-6.46,1.2,5.88,8.33,6.86,6.16
-6.62,0.25,6.2,2.24,2.24,1.05
-7.06,-0.56,6.73,-1.33,-1.33,-1.33
-6.47,-0.64,6.63,-1.19,-1.33,-1.33
-7.06,-0.59,7.09,-0.49,-0.49,-0.49
-6.85,-0.57,7.21,1.54,1.54,1.75
-6.07,-0.61,7.22,3.64,3.64,3.85
-6.12,-0.94,7.57,5.04,5.04,5.11
-5.88,-0.99,7.78,7.07,7.07,7.07
-6.23,-0.8,8.1,10.64,10.64,10.64
-6.62,-0.39,8.22,13.58,13.58,13.58
-6.4,-0.21,8.16,12.88,12.88,12.88
-6.06,-0.38,8.13,11.69,11.69,11.69
-6.23,-0.29,8.09,8.68,8.05,6.58
-6.08,0.06,7.82,2.8,1.96,1.96
-6.48,-0.15,7.75,-2.8,-3.01,-3.01
-7.14,-0.41,7.7,-3.71,-3.71,-3.71
-7.23,-0.48,7.57,-1.54,-1.54,-1.54
-6.65,-0.39,7.24,-0.98,-0.98,-0.77
-6.19,-0.42,7.08,-0.49,-0.49,-0.56
-6.25,-0.41,6.92,-0.49,-0.49,-0.49
-6.47,-0.62,6.89,0.14,0.7,0.7
-6.98,-1.04,7.09,3.22,3.22,4.27
-7.11,-0.75,7.39,7.84,7.84,7.84
-6.79,0.36,7.46,3.71,2.66,2.66
-6.72,0.68,7.59,-5.25,-6.3,-6.3
-6.46,0.25,7.52,-12.32,-12.74,-12.74
-5.95,-0.47,7.45,-14.28,-14.49,-14.49
-5.69,-0.78,7.35,-13.86,-13.72,-13.72
-5.78,-0.66,6.98,-14.21,-6.16,-6.16
-6.1,-1.25,6.59,9.94,10.08,9.59
-5.17,-0.36,6.38,7,7,7
-5.84,-1.21,6.1,18.13,18.13,18.13
-6.1,-0.48,5.71,17.99,17.99,17.99
-6.58,-0.24,5.18,16.52,16.1,16.1
-7.22,0.23,4.85,13.3,11.69,11.69
-7.42,0.27,4.47,9.8,9.59,9.59
-7.06,0.51,3.92,5.25,4.55,4.55
-7.22,0.42,2.83,-4.83,-5.6,-5.6
-7.93,0.37,2.32,-10.15,-10.15,-10.5
-8.81,0.4,2.21,-13.02,-13.02,-13.02
-9.08,0.53,1.77,-16.87,-17.36,-17.36
-9.25,0.32,1.25,-19.46,-19.88,-19.88
-9.54,-0.68,0.29,-17.29,-16.45,-16.45
-9.77,-0.91,-0.18,-6.44,-6.44,-5.88
-9.84,-0.22,-0.42,-4.2,-3.57,-3.15
-9.93,-0.15,-0.65,-1.26,-1.26,-0.56
-9.76,-0.89,-1.33,3.43,3.43,7.84
-9.64,-1.17,-1.7,14.84,14.84,16.03
-9.53,-0.36,-2.26,21.42,21.42,21.56
-9.38,-0.2,-2.88,21.84,21.84,21.84
-9.11,-0.16,-3.58,21.98,21.98,21.98
-8.75,0.05,-4.47,22.19,22.26,22.26
-9.29,-0.18,-4.49,21.84,21.84,21.84
-9.6,-0.48,-5.58,23.31,23.31,23.17
-9.22,0.28,-5.8,19.46,19.46,18.69
-9.71,0.65,-5.81,13.93,11.9,11.06
-10.03,0.76,-6.26,5.95,5.95,3.08
-9.82,0.87,-6.59,-1.47,-1.47,-2.38
-9.47,-1.18,-6.54,-6.72,-6.72,-6.72
-9.28,-0.64,-6.56,-5.18,-5.18,-5.18
-8.57,-0.67,-6.7,-1.75,-1.75,-1.75
-7.41,-0.56,-6.49,4.76,4.76,5.81
-7.39,-0.72,-6.7,10.99,10.99,10.99
-7.09,-0.5,-6.75,14.63,14.63,14.63
-6.59,-0.15,-6.92,17.43,17.43,17.43
-7.04,0.38,-6.92,12.53,12.53,12.46
-6.89,0.65,-6.96,11.06,11.06,11.06
-7.32,1.11,-6.95,6.51,5.53,5.53
-6.78,0.83,-6.96,-0.77,-0.77,-1.4
-6.07,0.46,-6.95,-4.9,-4.9,-4.69
-6.71,0.26,-7.21,-3.85,-3.85,-4.06
-6.77,-0.14,-7.83,-3.15,-3.15,-2.8
-5.47,-0.26,-8.14,-1.89,-1.68,-1.61
-5.1,0.17,-7.87,-2.24,-2.73,-3.01
-5.82,0.08,-7.39,-3.99,-3.99,-3.99
-6.77,-0.49,-7.53,-1.61,-0.98,-0.98
-7.13,-0.99,-8.22,7.07,7.07,8.96
-6.81,-1.45,-9.27,25.41,29.68,31.64
-5.6,-0.28,-9.14,40.53,40.53,40.53
-5.15,0.54,-8.33,38.22,37.59,37.59
-4.74,-0.39,-8.63,35.42,35.35,35.35
-4.04,-0.7,-8.91,34.51,34.02,33.53
-3.38,0.5,-8.76,27.93,27.93,26.53
-3.66,-1.23,-9.36,10.36,10.36,8.82
-4.34,-0.82,-9.83,1.82,1.82,1.82
-4.69,-0.19,-9.9,-3.36,-3.36,-4.48
-4.53,0.16,-10.2,-15.4,-15.4,-15.4
-4.63,-0.82,-10.33,-15.89,-15.89,-15.89
-4.14,-1.78,-10.22,-9.38,-9.38,-9.38
-3.24,-1.49,-9.92,0.42,0.42,0.42
-2.45,-0.75,-9.78,1.68,1.33,1.33
-2.3,-0.37,-9.5,-1.19,-2.03,-2.03
-2.56,-0.77,-9.32,-3.5,-3.5,-3.57
-2.96,-1.24,-8.9,-1.4,-1.4,-1.4
-2.9,-1.47,-8.75,3.64,3.64,3.64
-2.38,-1.56,-9.05,9.24,9.24,9.24
-1.92,-1.44,-9.84,11.76,11.76,11.76
-2.12,-0.72,-10.05,9.17,9.17,9.17
-2.46,-0.28,-10.07,0.84,-0.14,-0.14
-2.78,-0.39,-10.39,-8.33,-8.33,-9.38
-3.37,-0.66,-11.07,-17.22,-35.14,-18.27
-5.38,-1.15,-11.73,-26.04,-26.04,-27.23
-5.44,-0.71,-11.55,-30.17,-30.17,-32.41
-4.8,-1,-10.84,1.68,1.68,1.68
-2,-0.4,-10.76,-13.65,-13.65,-13.65
-1.62,-0.36,-11.03,-19.46,-21.77,-21.77
-2.5,0,-10.39,-16.03,-16.03,-20.72
-2.63,-0.51,-9.96,-24.15,-24.57,-24.57
-2.73,-0.91,-10.2,-22.68,-22.68,-22.19
-3.36,0.26,-10.49,-25.13,-25.13,-25.9
-4.47,0.17,-10.83,-29.12,-29.12,-29.12
-4.83,-0.81,-11.21,-23.59,-23.59,-23.59
-5.64,-0.93,-10.85,-12.18,-12.18,-12.18
-6.41,-1.02,-11.03,-2.87,-2.87,-2.87
-6.35,-0.92,-11.28,8.54,8.54,8.54
-5.84,-0.55,-11.25,17.71,17.71,17.71
-6.97,0,-10.05,7.42,7.42,7.42
-5.75,0.12,-10.11,1.75,1.75,1.75
-5.69,0.65,-9.66,-10.01,-10.01,-10.01
-7.67,-0.52,-8.31,-15.82,-15.82,-15.82
-8.1,-0.49,-7.35,-9.59,-9.59,-9.59
-8.52,0.04,-6.81,-7.77,-7.77,-7.77
-8.87,0,-6.18,-7.28,-7.28,-7.28
-8.61,-0.07,-5.91,-5.25,-5.25,-5.25
-7.48,0,-5.57,-1.89,-1.89,-1.89
-7.29,0.38,-4.97,-0.77,-0.7,-0.7
-8.28,0.26,-4.49,-0.77,-1.33,-1.33
-8.21,0.17,-3.58,-2.52,-2.17,-2.17
-7.36,0.09,-2.75,-0.56,-0.28,0.14
-6.43,0.68,-1.87,-0.35,-0.49,-0.49
-6.59,1.05,-1.43,-4.34,-5.18,-5.18
-7.85,0.97,-0.91,-10.43,-10.43,-11.06
-8.4,0.58,-0.17,-14.63,-14.91,-14.91
-7.08,0.24,0.82,-14.63,-14.63,-14.63
-6.08,-0.09,1.84,-11.76,-11.76,-11.76
-6.12,0.01,2.99,-7.98,-7.98,-7.98
-6.68,0.03,3.61,-5.81,-5.81,-5.81
-6.63,0.06,4.09,-1.68,-1.19,-1.19
-6.46,0.11,4.27,1.82,3.08,3.08
-5.69,-0.02,4.85,4.83,5.18,5.74
-3.85,-0.78,5.45,12.32,13.86,13.86
-3.67,-0.4,6.76,23.31,23.31,23.45
-4.24,0.31,6.94,22.96,22.61,22.61
-4.33,0.91,7.13,19.88,19.88,19.46
-4.81,1.45,7.71,14.21,14.21,14.21
-4.21,1.42,8.36,6.58,6.58,6.58
-3.87,1.36,8.77,-0.14,-0.14,-0.14
-4.18,1.81,9.05,-8.4,-8.4,-8.4
-4.5,1.23,9.47,-14.14,-14.14,-14.14
-4.1,0.45,9.41,-15.89,-15.75,-15.75
-4.23,0.53,9.49,-15.61,-15.68,-15.68
-4.68,0.35,9.62,-14.77,-14.77,-14.77
-4.39,0.02,9.71,-10.57,-10.01,-10.01
-4.82,0,9.86,-5.53,-4.9,-4.9
-4.1,0.45,9.73,-3.01,-3.01,-3.43
-3.15,0.23,9.6,-4.2,-4.2,-4.13
-3.71,-0.46,9.47,-2.59,-2.59,-2.03
-4.49,-0.95,9.38,4.34,5.32,5.32
-4.67,-0.2,9.2,10.5,10.71,10.71
-4.38,0.94,9.22,8.89,8.89,8.26
-3.81,1.05,9.16,2.52,2.52,2.52
-3.9,0.21,9.07,3.22,3.22,3.22
-4.1,-0.04,9.07,7.77,7.77,7.77
-4.1,0.4,9.03,8.4,8.4,8.4
-4.24,0.44,8.92,5.39,5.39,5.39
-5.25,0.46,8.73,5.74,5.74,5.74
-5.87,0.54,8.76,7,7,7
-5.28,0.6,8.75,7.35,7.42,7.42
-4.59,0.59,8.81,6.37,6.37,6.02
-3.57,0.88,8.89,3.22,3.22,2.66
-3.2,0.93,9.07,-1.05,-1.05,-1.05
-3.04,0.61,9.24,-2.8,-2.8,-2.8
-2.93,0.2,9.29,-2.87,-2.87,-2.87
-2.88,-0.33,9.14,0.91,0.91,0.91
-2.82,-0.39,9.05,3.78,3.78,3.78
-3.26,0.29,9.23,3.22,3.22,2.73
-3.94,0.94,9.28,-4.41,-4.41,-4.41
-4.35,1.72,9.29,-13.44,-13.44,-13.44
-4.91,0.64,8.85,-27.65,-26.88,-26.88
-4.88,-0.9,8.26,-22.12,-21.28,-21.28
-7.15,-1.5,9.13,47.18,47.18,47.18
-2.48,1.24,6.12,22.26,17.08,17.08
-5.04,0.57,6.86,36.75,36.75,36.75
-6.41,1.03,5.86,24.78,24.78,24.78
-5.72,1.52,5.31,15.75,13.23,13.23
-6.55,1.18,5.07,5.95,5.95,5.46
-7.4,0.99,4.87,3.29,3.15,3.15
-7.88,0.64,4.8,7.63,7.63,8.4
-8.18,0.31,4.62,13.72,13.72,14.56
-8.96,0.43,4.29,22.33,22.33,22.33
-9.57,1.55,2.15,32.97,32.2,32.2
-9.49,1.96,1.59,27.02,24.5,23.1
-9.78,2.1,0.59,15.47,15.47,10.57
-9.95,1.66,-0.31,-0.7,-0.7,-2.1
-10.17,1.58,-0.87,-12.32,-12.32,-13.65
-9.71,0.88,-1.52,-26.04,-26.04,-26.04
-9.55,0.09,-1.87,-23.45,-23.45,-23.45
-9.02,-0.18,-2.09,-17.99,-17.99,-17.99
-7.98,-0.61,-2.39,-10.57,-9.31,-9.31
-7.51,-0.82,-2.87,2.73,3.99,3.99
-7.66,-0.65,-3.43,10.5,10.5,10.5
-8.23,-0.4,-4.11,15.19,15.19,15.19
-9.02,-0.13,-4.48,14.14,14.14,14.14
-9.73,0.15,-4.78,10.71,10.71,10.71
-9.72,0.18,-5.31,5.18,5.18,5.18
-10,0.35,-5.74,-0.56,-1.4,-1.4
-10.28,0.49,-5.92,-6.44,-6.44,-6.44
-10.04,0.45,-6.06,-10.78,-11.27,-11.27
-9.26,0.44,-6.41,-14.63,-14.63,-15.26
-8.29,0.42,-6.76,-20.51,-20.51,-20.51
-7.93,0.16,-6.64,-23.94,-23.94,-23.94
-7.8,-0.16,-6.58,-24.57,-24.57,-24.57
-7.89,-0.39,-6.45,-22.68,-22.68,-22.68
-7.75,-0.53,-6.57,-20.58,-19.74,-19.74
-7.42,-0.57,-6.76,-17.15,-17.15,-16.1
-6.39,-0.47,-7.05,-7.42,-7.21,-7.21
-6.6,-0.41,-7.44,-6.65,-6.65,-6.65
-7.1,-0.43,-7.51,-4.48,-3.99,-3.99
-7.21,-0.67,-7.45,0.28,0.77,0.77
-6.51,-0.63,-7.7,4.41,4.41,4.41
-6,-0.22,-8.05,4.9,4.76,4.76
-5.79,0.08,-8.18,2.66,2.17,2.17
-5.97,-0.03,-8.05,-1.54,-1.54,-1.89
-5.86,-0.24,-7.94,-2.8,-2.8,-2.94
-5.43,-0.32,-7.8,-2.24,-1.68,-1.4
-5.2,-0.5,-7.84,0.14,0.14,0.49
-5.13,-0.55,-8.09,2.03,2.03,2.1
-5.07,-0.63,-8.35,3.36,3.36,3.36
-5.28,-0.71,-8.55,4.97,4.97,5.39
-5.34,-0.48,-8.73,6.16,6.16,6.16
-4.76,-0.4,-9.11,5.11,5.11,5.11
-4.82,-0.34,-9.39,0.42,0.42,0.42
-4.88,-0.22,-9.61,-1.61,-1.61,-1.61
-4.79,-0.21,-9.85,-3.29,-3.29,-3.29
-4.62,-0.15,-9.96,-4.62,-4.62,-4.62
-4.34,-0.11,-10.1,-7.07,-7.07,-7.07
-4.14,-0.2,-10.52,-10.64,-10.64,-10.64
-4.26,-0.41,-10.47,-10.43,-10.43,-10.15
-4.36,-0.38,-10.42,-7.63,-7.63,-7.63
-4.36,-0.24,-10.76,-5.95,-5.74,-5.74
-4.34,-0.06,-11.31,-5.81,-5.88,-5.88
-4.67,-0.07,-11.65,-6.02,-6.02,-6.09
-5.14,-0.04,-12.03,-7.28,-7.28,-7.28
-5.85,0.13,-12.07,-11.41,-11.41,-12.6
-6.57,0.06,-11.9,-15.12,-15.12,-15.19
-6.89,-0.1,-11.75,-14,-14,-13.3
-6.71,-0.24,-11.61,-9.87,-9.87,-9.87
-6.49,-0.28,-11.27,-6.72,-6.37,-6.37
-6.2,-0.07,-10.91,-3.57,-3.57,-3.57
-6.12,0,-10.43,-3.29,-3.29,-3.22
-5.91,0.05,-10,-2.94,-2.94,-2.8
-5.66,0.24,-9.81,-4.27,-4.27,-4.27
-5.55,0.46,-9.64,-7.35,-7.35,-7.35
-5.9,0.28,-9.38,-8.19,-7.98,-7.98
-6.74,0.14,-8.8,-7.14,-7.14,-6.93
-7.44,0.15,-8.05,-5.88,-5.88,-5.88
-7.87,0.23,-7.76,-5.6,-6.02,-6.02
-8.19,0.36,-7.41,-7.63,-8.12,-8.12
-8.18,0.43,-6.94,-11.48,-11.48,-11.48
-8.02,0.33,-6.02,-14.49,-14.56,-14.56
-7.57,0.15,-5.4,-15.26,-15.12,-15.12
-7.11,0.22,-5.02,-15.82,-15.82,-15.82
-6.68,0.09,-4.42,-15.61,-14.98,-14.98
-6.39,-0.13,-3.38,-11.69,-11.13,-11.13
-5.94,0.03,-2.85,-8.68,-7.42,-7.42
-5.92,0.25,-2.14,-5.81,-5.6,-4.83
-6.39,0.23,-1.3,-2.87,-2.1,-1.89
-6.7,0.31,-0.56,-0.77,-0.77,-0.35
-7.33,0.26,0.1,-0.14,-0.14,-0.07
-8.2,0.25,0.61,-0.21,-0.49,-0.56
-9.52,0.01,1.11,0.42,0.42,0.42
-9.74,-0.19,1.1,2.17,2.66,2.66
-9.48,-0.12,1.23,4.13,4.76,6.3
-8.9,-0.06,1.75,8.47,8.47,8.82
-8.09,-0.04,2.13,11.27,11.27,11.27
-8,-0.15,2.55,13.3,13.58,13.58
-8.35,-0.13,3.1,14.63,14.63,14.7
-8.92,-0.17,3.43,15.12,15.47,15.47
-8.73,-0.33,3.7,16.59,16.59,16.8
-8.64,-0.26,4.1,17.85,17.85,17.85
-8.7,-0.02,4.41,17.85,17.78,17.78
-8.06,0.01,4.64,15.54,15.54,15.54
-7.19,0.07,4.85,12.46,12.46,12.46
-6.41,0.33,5.04,7.42,7.42,7.42
-5.93,-0.09,5.32,3.92,3.92,3.92
-5.78,-0.26,5.8,5.32,5.18,5.18
-5.31,-0.22,6.29,3.5,3.22,3.22
-5.29,-0.18,6.84,2.38,2.31,2.31
-4.63,-0.16,7.33,1.96,1.82,1.82
-3.83,-0.26,7.56,1.61,1.54,1.54
-3.5,-0.39,8.08,0.91,0.91,0.91
-4.07,-0.56,8.11,1.82,2.52,2.59
-5.3,-0.2,8.13,1.4,1.26,1.26
-6.44,-0.43,8.43,3.5,3.5,3.78
-7.01,-0.15,8.54,4.76,5.39,5.6
-7.66,-0.15,8.66,6.65,6.86,6.86
-7.43,-0.41,8.56,8.82,8.82,8.82
-6.38,-0.71,8.45,11.48,12.39,12.39
-5.28,-0.27,8.32,13.44,13.44,13.58
-4.83,-0.07,8.38,13.51,13.51,13.51
-4.8,0.15,8.17,10.85,10.85,10.85
-5.37,0.3,7.97,7.84,7.84,7.84
-6.14,0.09,7.86,4.06,4.06,4.06
-6.8,-0.43,7.9,4.62,4.62,4.62
-7.08,-0.45,7.91,9.38,10.08,10.08
-7.02,-0.25,7.9,13.02,13.44,13.44
-6.4,0.02,7.73,14.63,14.63,14.56
-6,0.13,7.64,14.7,14.7,14.49
-5.99,0.44,7.68,12.88,12.04,11.62
-6.33,0.31,7.54,9.73,9.73,8.96
-6.44,0.22,7.46,7.63,7.63,7.21
-6.29,0.15,7.45,3.85,3.85,3.64
-6.25,0.34,7.49,0.14,0.14,-0.56
-6.38,0.52,7.69,-3.85,-5.04,-5.04
-5.55,-0.34,7.78,-6.09,-6.09,-6.23
-4.95,-0.09,7.59,-7.7,-7.7,-7.7
-5.36,-0.24,7.34,-4.55,-4.55,-4.55
-6.13,-0.34,7.26,-1.26,-0.77,-0.77
-6.51,-1.95,6.78,6.3,6.3,8.12
-7.48,0.8,7.05,12.32,11.69,12.39
-6.76,-1.16,6.73,17.57,17.57,20.86
-6.51,-0.47,6.5,23.73,23.73,23.73
-6.54,0.18,6.28,27.79,27.79,27.79
-6.93,0.27,6.1,31.22,31.22,31.22
-6.93,0.37,5.93,32.2,32.55,32.55
-7.05,0.84,5.59,31.99,31.99,31.71
-7.49,1.27,5.3,28.49,28.49,28.49
-7.87,1.5,5.15,25.34,24.22,24.22
-7.85,1.8,4.85,19.25,19.25,18.34
-7.88,2,4.42,10.43,10.43,10.43
-7.8,2.13,4.22,4.83,2.94,2.94
-7.88,2.02,3.87,-3.71,-4.69,-4.69
-8.08,1.99,3.32,-12.04,-12.04,-12.81
-8.52,1.81,3.01,-15.82,-16.31,-16.31
-8.7,1.44,2.61,-19.46,-19.46,-19.53
-8.78,1.12,2.43,-19.53,-19.25,-18.97
-8.74,0.83,1.97,-16.8,-16.31,-16.31
-8.81,0.71,1.36,-12.53,-12.53,-12.04
-9.01,0.64,0.98,-10.15,-9.45,-9.03
-9.16,0.39,0.43,-6.51,-6.51,-6.16
-9.36,0.28,-0.27,-2.38,-2.38,-2.38
-9.44,0.18,-0.73,0.77,1.96,1.96
-9.43,0.07,-1.2,5.6,5.6,5.6
-9.32,0.03,-1.91,9.45,9.45,9.45
-9.04,0.22,-2.77,9.52,9.52,9.52
-8.64,0.1,-3.38,8.05,8.05,8.05
-8.35,-0.11,-3.75,7.28,7.21,7.21
-8.47,-0.35,-4.12,7.56,7.56,7.7
-8.87,-0.57,-4.57,9.1,9.1,9.17
-9.06,-0.64,-5.11,11.2,11.2,11.55
-9.01,-0.8,-5.75,13.51,13.51,13.86
-8.9,-0.98,-6.16,16.24,16.24,17.57
-9.13,-1.19,-6.67,20.86,20.86,20.86
-9.34,-1.2,-7.1,22.68,22.68,22.68
-9.04,-0.9,-7.28,21.07,20.23,20.23
-8.5,-0.63,-7.52,16.31,14.7,14.7
-8.19,-0.61,-7.81,8.33,8.33,7.35
-7.94,-0.55,-7.99,0.21,0.21,-0.77
-7.65,-0.43,-7.95,-11.06,-11.06,-11.06
-7.47,-0.31,-7.95,-17.64,-19.74,-19.74
-7.26,-0.36,-7.99,-24.71,-24.71,-26.04
-7.03,-0.46,-7.91,-28.98,-28.98,-28.98
-6.83,-0.58,-7.66,-30.73,-30.73,-30.73
-6.65,-0.55,-7.7,-31.08,-31.08,-31.08
-6.5,-0.57,-7.65,-28.28,-28.28,-28.28
-6.51,-0.67,-7.37,-24.22,-24.22,-23.45
-6.73,-0.56,-7.11,-16.38,-16.38,-16.38
-6.71,-0.36,-7.01,-8.47,-7.77,-7.77
-6.21,-0.2,-7.04,-3.78,-3.22,-3.22
-5.92,-0.08,-7.18,0.49,1.61,2.03
-6.01,0.08,-7.37,4.27,4.76,4.76
-6.12,0.22,-7.58,6.58,6.58,6.58
-6.11,0.22,-8.08,8.26,8.26,8.26
-6.03,0.33,-8.14,8.19,8.19,8.19
-6.05,0.29,-8.07,8.26,8.19,8.19
-6.03,0.29,-8.09,7.28,7.21,7.21
-5.68,0.44,-8.27,6.02,5.11,5.11
-5.28,0.49,-8.48,3.78,3.57,3.29
-5.02,0.47,-8.51,2.94,2.94,2.94
-4.92,0.3,-8.43,3.29,3.36,3.36
-4.86,0.21,-8.39,4.48,4.48,4.48
-4.61,0.1,-8.46,5.95,5.95,5.95
-4.53,-0.18,-8.48,11.27,11.27,11.27
-4.62,-0.33,-8.52,15.61,15.61,15.61
-4.73,-0.21,-8.65,18.48,18.76,18.76
-4.75,0.11,-9,19.39,19.39,19.39
-4.54,0.19,-9.37,18.41,18.41,18.13
-4.45,0.15,-9.54,16.24,15.19,14.7
-4.09,0.13,-10.22,5.18,5.18,4.62
-4.06,0.18,-10.39,-0.28,-0.28,-0.28
-4.33,0.14,-10.5,-4.69,-4.69,-4.69
-4.71,0.09,-10.44,-6.86,-7.28,-7.28
-4.86,-0.09,-10.28,-7.91,-7.91,-7.98
-4.89,-0.17,-10.22,-8.05,-8.05,-8.05
-4.74,-0.28,-9.96,-6.86,-6.86,-6.86
-4.63,-0.33,-9.99,-5.39,-5.39,-5.39
-4.53,-0.05,-10.48,-5.81,-6.02,-6.02
-4.35,0.15,-10.72,-9.87,-9.87,-10.36
-4.24,0.06,-10.71,-12.6,-13.3,-13.72
-4.64,0.08,-10.68,-15.54,-15.54,-16.66
-5.85,0.03,-10.3,-21.84,-21.84,-21.98
-5.66,-0.28,-10.55,-18.55,-18.55,-17.92
-5.46,-0.37,-10.6,-12.74,-12.74,-12.74
-5.54,-0.15,-10.32,-5.95,-5.95,-5.95
-5.92,0.08,-10.13,-3.36,-2.94,-2.94
-6.28,0.25,-9.91,-1.12,-0.56,-0.35
-6.64,0.42,-9.65,0.84,0.84,0.98
-6.64,0.41,-9.37,1.47,1.75,1.82
-7.07,0.39,-8.81,1.68,1.68,1.68
-7.31,0.51,-8.27,-0.77,-1.12,-1.12
-7.18,0.55,-8.14,-3.22,-4.13,-4.69
-6.94,0.45,-7.37,-11.34,-11.34,-11.69
-7.17,0.24,-6.68,-13.23,-13.23,-13.23
-7.28,0.08,-6,-13.23,-13.23,-13.23
-7.46,-0.12,-5.56,-12.6,-12.46,-12.46
-7.46,-0.06,-4.95,-11.83,-11.83,-11.83
-7.47,0,-4.58,-11.41,-11.27,-11.27
-7.66,-0.07,-4.35,-10.92,-10.64,-10.64
-8.04,-0.1,-4.17,-9.17,-9.17,-9.17
-8.23,-0.19,-3.72,-6.58,-6.23,-6.23
-8.49,-0.15,-3.16,-5.04,-4.83,-4.83
-8.6,0.28,-1.67,-8.12,-8.12,-8.12
-8.44,0.31,-1.36,-11.34,-12.25,-12.25
-8.11,0.2,-0.85,-14.49,-14.49,-15.05
-7.71,-0.11,-0.05,-16.03,-16.03,-16.03
-7.7,-0.34,0.76,-14.56,-14.56,-14.56
-8.22,-0.15,2.14,-7.63,-7.63,-7.63
-8.3,-0.15,2.63,-2.94,-2.94,-2.94
