aX,aY,aZ,gX,gY,gZ
-9.8,-0.51,1.56,-0.42,-0.42,-0.56
-9.77,-0.65,1.5,-0.35,-0.35,-0.56
-9.8,-0.51,1.56,-0.42,-0.42,-0.56
-9.77,-0.65,1.5,-0.35,-0.35,-0.21
-9.75,-0.66,1.5,1.12,1.12,1.12
-9.74,-0.57,1.54,1.33,1.33,1.33
-9.68,-0.46,1.56,0.35,-0.42,-0.42
-9.66,-0.5,1.56,-1.19,-1.47,-1.47
-9.62,-0.73,1.5,-1.05,-1.05,-1.05
-9.64,-0.79,1.48,0.42,0.56,0.56
-9.64,-0.74,1.52,0.98,0.98,0.98
-9.67,-0.67,1.54,0.77,0.77,0.63
-9.6,-0.63,1.51,0.56,0.56,0.56
-9.52,-0.63,1.48,0.56,0.56,0.56
-9.56,-0.64,1.48,0.7,0.7,0.63
-9.65,-0.72,1.5,0.77,0.77,0.77
-9.71,-0.74,1.5,0.98,0.98,0.98
-9.65,-0.69,1.45,1.12,1.12,1.12
-9.69,-0.7,1.44,1.12,1.12,1.12
-9.7,-0.61,1.46,0.84,0.84,0.84
-9.77,-0.59,1.54,0.21,0.07,0.07
-9.73,-0.6,1.49,-0.14,-0.07,-0.07
-9.68,-0.61,1.47,0.07,0.07,0.07
-9.69,-0.63,1.45,0.28,0.28,0.42
-9.86,-0.67,1.51,0.98,0.98,0.98
-9.92,-0.7,1.45,1.54,1.54,1.47
-9.97,-0.63,1.49,1.61,1.61,1.61
-9.98,-0.52,1.51,1.26,1.26,1.26
-9.96,-0.45,1.56,0.21,0,0
-9.95,-0.49,1.51,-1.19,-1.19,-1.33
-9.91,-0.57,1.51,-1.47,-1.47,-1.47
-9.9,-0.62,1.51,-1.54,-1.54,-1.54
-9.93,-0.72,1.53,-1.12,-1.12,-1.12
-9.9,-0.8,1.5,0,0.42,0.42
-9.77,-0.86,1.48,2.03,2.24,2.24
-9.65,-0.74,1.49,4.2,4.2,4.27
-9.53,-0.58,1.52,4.55,4.55,4.55
-9.43,-0.53,1.54,4.13,4.13,3.92
-9.43,-0.52,1.54,3.71,3.71,3.71
-9.48,-0.61,1.51,3.5,3.5,3.5
-9.51,-0.61,1.47,3.15,3.15,3.15
-9.54,-0.59,1.45,2.73,2.73,2.73
-9.62,-0.65,1.43,3.08,3.08,3.08
-9.72,-0.72,1.41,4.13,4.13,4.13
-9.77,-0.69,1.38,5.81,5.81,5.81
-9.8,-0.58,1.37,5.95,5.95,5.95
-9.71,-0.47,1.35,5.04,4.97,4.97
-9.66,-0.4,1.35,4.13,3.64,3.64
-9.66,-0.32,1.39,2.45,1.68,1.68
-9.75,-0.31,1.38,0.21,-0.07,-0.63
-9.8,-0.43,1.39,-1.61,-1.68,-1.68
-9.79,-0.61,1.37,-2.31,-2.17,-2.17
-9.76,-0.57,1.37,-2.1,-2.03,-2.03
-9.76,-0.58,1.37,-2.17,-2.17,-2.03
-9.78,-0.65,1.36,-1.68,-1.54,-1.54
-9.86,-0.76,1.43,0.28,0.28,0.49
-9.84,-0.64,1.51,1.4,1.4,1.4
-9.79,-0.49,1.53,0.84,0.84,0.84
-9.77,-0.49,1.51,0.14,0.14,0.14
-9.79,-0.56,1.5,0.14,0.21,0.21
-9.76,-0.49,1.48,0.42,0.63,0.63
-9.78,-0.44,1.47,0.28,0.28,0.28
-9.82,-0.49,1.46,0.14,0.14,0.14
-9.77,-0.59,1.43,1.12,1.12,1.12
-9.81,-0.56,1.43,1.61,1.75,1.75
-9.82,-0.54,1.42,1.89,1.89,1.96
-9.83,-0.52,1.44,1.61,1.61,1.61
-9.72,-0.45,1.45,1.05,0.98,0.98
-9.74,-0.44,1.39,0.07,0.07,0.07
-9.8,-0.56,1.38,0.14,0.14,0.35
-9.98,-0.74,1.38,0.91,0.91,0.84
-10.12,-0.78,1.44,2.59,2.59,2.59
-10.19,-0.67,1.47,3.71,3.71,4.13
-10.16,-0.53,1.48,4.55,4.55,4.62
-10.01,-0.32,1.48,4.69,4.69,4.69
-9.95,-0.12,1.48,3.99,3.99,3.99
-10.1,-0.12,1.45,3.01,3.01,3.01
-10.31,-0.22,1.45,3.01,3.15,3.36
-10.72,-0.36,1.48,4.34,4.34,4.34
-11.22,-0.55,1.48,7.28,7.7,7.7
-11.67,-0.54,1.51,10.43,10.92,10.92
-11.43,0.94,1.47,12.67,12.46,12.46
-11.4,1.32,1.4,11.2,10.43,10.43
-11.61,1.21,1.34,9.66,9.66,9.66
-11.59,1.11,1.33,11.69,11.69,11.69
-11.31,1.38,1.31,12.18,11.83,11.83
-10.97,1.7,1.3,10.57,10.22,9.52
-10.78,1.61,1.29,7.56,7.35,7.35
-10.61,1.36,1.25,8.05,8.4,8.4
-10.49,1.23,1.24,10.36,11.55,11.55
-10.3,1.37,1.33,13.02,13.44,13.44
-9.67,1.91,1.41,14.84,14.91,14.84
-9.25,2.36,1.38,14.42,14.21,14.21
-9.02,2.66,1.39,12.95,12.39,12.39
-8.72,2.95,1.4,11.13,11.13,11.13
-8.48,3.36,1.35,9.31,9.1,9.1
-8.29,3.55,1.28,8.12,8.12,8.12
-8.31,3.58,1.13,9.17,9.17,9.31
-8.26,3.97,1.21,9.94,9.94,9.94
-8.14,4.54,1.16,9.03,9.03,8.89
-8.25,4.85,1.03,7.07,7.07,6.93
-8,5.09,0.9,7.21,7.21,7.21
-7.74,5.5,0.84,6.65,6.37,6.37
-7.5,5.96,0.89,5.11,3.92,3.92
-7.28,6.28,0.9,1.68,1.26,0.56
-7,6.34,0.8,-0.63,-0.77,-0.77
-6.69,6.69,0.88,-2.73,-2.8,-2.8
-6.45,6.86,0.91,-5.18,-5.18,-5.18
-6.45,6.77,0.94,-5.67,-5.6,-5.6
-6.14,6.84,1.01,-4.41,-4.48,-4.48
-5.97,7.17,1.06,-3.99,-4.34,-4.55
-5.83,7.59,1.15,-5.88,-5.88,-6.86
-5.52,7.89,1.12,-8.19,-8.19,-8.4
-4.97,8.01,1.13,-10.5,-10.5,-10.64
-4.4,8.14,1.17,-12.32,-12.32,-12.74
-3.96,8.32,1.25,-15.33,-15.33,-15.82
-3.47,8.24,1.23,-17.22,-17.22,-17.22
-3.05,8.05,1.26,-16.8,-16.8,-16.38
-2.68,7.9,1.34,-13.58,-13.58,-13.09
-2.18,8.12,1.43,-11.76,-11.76,-11.76
-1.69,8.37,1.59,-11.97,-11.97,-12.11
-1.35,8.57,1.74,-13.58,-13.58,-13.58
-0.87,8.89,1.86,-15.82,-16.38,-16.38
-0.34,8.7,1.83,-17.5,-17.36,-17.36
0.13,8.61,1.88,-16.17,-16.17,-16.17
0.9,9.2,2.23,-18.48,-19.18,-19.18
1.86,9.67,2.38,-23.24,-25.83,-25.83
2.16,9.03,2.37,-30.38,-30.66,-30.66
2.07,8.29,2.37,-29.54,-28.91,-28.91
1.87,7.93,2.63,-25.76,-23.24,-23.24
2.04,8.05,2.77,-17.08,-16.38,-16.38
2.29,8.07,2.68,-12.67,-12.67,-12.67
2.57,8.03,2.63,-9.03,-9.03,-9.03
3.07,8.02,2.63,-8.33,-8.33,-8.33
3.54,7.93,2.5,-7.98,-7.98,-7.98
4.22,8.14,2.33,-9.59,-9.59,-9.87
4.72,8.05,2.18,-15.05,-15.05,-15.05
4.91,7.04,2.18,-12.67,-10.85,-10.85
5.22,7.02,2.25,-6.44,-6.44,-5.67
5.54,7.41,2.31,-5.11,-5.11,-5.04
4.79,7,2.64,5.25,5.25,5.25
4.52,7.64,2.79,6.51,6.51,6.3
4.52,8.16,2.87,3.01,3.01,2.45
4.09,8.04,2.87,0.49,0.49,0.7
3.25,7.86,2.98,2.52,2.52,2.52
2.89,8.31,2.85,3.36,3.36,3.36
2.67,8.46,2.71,3.15,3.15,3.15
2.38,8.56,2.69,3.85,4.41,4.41
1.85,8.49,2.75,7,7,8.12
1.62,8.88,2.71,8.61,8.61,8.61
1.87,9.71,2.59,3.85,1.89,1.89
1.72,9.42,2.48,-2.1,-2.1,-2.31
1.16,8.83,2.4,-1.54,-1.54,-1.54
1.04,9.22,2.43,-4.13,-4.13,-4.13
1.12,9.38,2.3,-9.1,-9.1,-9.1
0.01,8.76,2.57,-8.4,-8.4,-8.4
-0.46,7.99,2.52,-2.8,-2.8,-2.8
-0.65,7.88,2.57,2.59,3.15,3.15
-0.48,8.81,2.76,1.54,1.54,1.54
-0.82,9.06,2.71,-3.99,-3.99,-3.99
-1.67,8.26,2.75,-4.62,-4.62,-4.06
-2.13,8.05,2.79,2.66,3.29,3.29
-2.18,8.79,2.8,3.57,3.01,3.01
-2.68,9.03,2.79,-0.84,-1.26,-1.26
-3.22,8.11,2.73,1.33,1.33,2.1
-3.76,8.13,2.75,6.3,6.3,6.72
-3.76,8.85,2.8,5.95,5.95,5.39
-4.01,9.31,2.74,-1.75,-1.75,-1.75
-4.59,8.51,2.66,-2.52,-1.82,-1.82
-4.65,8.28,2.61,0.42,0.56,0.56
-4.81,8.85,2.66,-2.45,-2.45,-2.45
-5.4,8.57,2.54,-6.79,-6.93,-6.93
-5.45,7.99,2.48,-6.44,-6.44,-6.44
-5.22,8.04,2.55,-5.74,-5.74,-5.88
-5,8.23,2.6,-7.63,-8.47,-8.96
-5.25,7.7,2.61,-9.94,-9.94,-9.66
-5.44,7.37,2.69,-6.37,-6.37,-5.74
-5.27,7.48,2.77,-3.22,-3.22,-2.94
-5.39,7.41,2.72,-1.61,-1.61,-1.61
-5.65,7.34,2.76,0.07,0.07,0.07
-5.92,7.06,2.77,2.94,2.94,2.94
-6.05,7.05,2.67,5.32,5.32,5.74
-6.25,7.33,2.64,5.74,5.74,5.74
-6.62,7.28,2.54,3.85,3.85,3.85
-6.73,6.97,2.47,4.76,4.76,4.76
-6.83,6.91,2.46,5.88,5.88,5.88
-6.98,7.11,2.48,3.36,2.87,2.87
-7.26,7.04,2.41,-1.47,-1.89,-1.89
-7.43,6.54,2.28,-3.36,-3.22,-3.22
-7.19,6.21,2.19,-1.96,-1.96,-1.96
-6.52,6.42,2.19,-2.94,-2.94,-3.57
-6.54,6.24,2.17,-7.98,-7.98,-7.98
-6.98,5.49,2.15,-8.05,-7.7,-7.7
-6.92,5.18,2.13,-5.67,-5.67,-5.39
-6.74,5.22,2.25,-5.74,-5.74,-5.74
-6.9,4.96,2.33,-7,-7,-7
-7.14,4.72,2.35,-6.16,-6.16,-6.16
-7.37,4.72,2.44,-4.97,-4.97,-4.97
-7.7,4.58,2.46,-4.2,-4.06,-3.99
-7.64,4.47,2.4,-3.78,-3.78,-3.78
-7.78,4.3,2.3,-3.85,-3.85,-3.71
-8.33,4.13,2.48,-2.8,-2.8,-2.59
-8.71,4.18,2.65,-2.73,-2.73,-2.94
-8.79,4.53,2.68,-7.14,-7.14,-7.14
-9.15,4.34,2.61,-10.71,-11.2,-11.2
-9.56,3.82,2.52,-10.71,-9.87,-9.87
-9.96,3.34,2.54,-5.74,-5.25,-5.25
-9.95,3.55,2.61,-1.47,-1.47,-1.4
-9.67,4.03,2.64,-3.92,-3.92,-4.48
-9.46,3.99,2.57,-7.49,-8.54,-9.17
-9.47,3.38,2.63,-10.99,-10.99,-11.06
-9.21,3.07,2.65,-10.92,-10.92,-10.92
-8.96,3.01,2.59,-12.04,-12.04,-12.04
-8.72,2.68,2.68,-15.33,-15.33,-15.61
-8.96,2.05,2.66,-14.91,-14.91,-14.91
-9.02,1.36,2.76,-8.33,-8.4,-8.4
-9.14,1.32,2.78,-8.54,-8.61,-8.61
-9.32,1.1,2.84,-8.05,-8.05,-8.05
-9.54,0.63,2.91,-6.37,-6.23,-6.23
-9.67,0.51,2.93,-3.57,-3.57,-3.5
-9.57,0.77,2.91,-3.85,-3.85,-3.99
-9.54,0.92,2.94,-4.9,-4.9,-5.39
-9.58,0.77,2.9,-6.02,-6.02,-6.02
-9.7,0.6,2.88,-6.51,-6.51,-6.51
-9.79,0.24,2.83,-6.93,-6.93,-6.51
-9.82,0.13,2.8,-5.74,-5.74,-5.67
-10.22,-0.08,2.85,-5.95,-5.95,-5.95
-10.15,-0.36,2.93,-6.02,-6.02,-6.02
-9.89,-0.3,3.01,-8.33,-8.33,-8.33
-9.67,-0.14,3.09,-11.76,-12.46,-12.46
-9.78,-0.78,3.12,-15.82,-15.89,-15.89
-9.75,-1.27,3.21,-15.05,-14.77,-14.77
-9.68,-1.27,3.18,-12.6,-12.6,-12.32
-9.57,-1.26,3.13,-10.22,-9.8,-9.8
-9.42,-1.26,3.16,-7.7,-7.28,-7.28
-9.28,-1.22,3.17,-5.88,-5.67,-5.67
-9.27,-1.17,3.11,-3.99,-3.99,-3.99
-9.33,-1.25,3.14,-3.43,-3.43,-3.5
-9.56,-1.38,3.22,-3.64,-3.71,-3.71
-9.95,-1.9,3.28,-2.87,-2.87,-2.59
-10.25,-2.09,3.27,0.35,0.35,0.77
-10.27,-1.86,3.26,2.1,2.1,2.17
-10.27,-1.64,3.29,2.38,2.38,2.45
-10.29,-1.61,3.24,3.15,3.15,3.5
-10.28,-1.36,3.28,3.99,3.85,3.85
-10.4,-1.07,3.42,1.75,1.75,1.4
-10.59,-1.12,3.41,-0.14,-0.42,-0.42
-10.81,-1.29,3.37,0,0,0.21
-11.05,-1.6,3.37,3.78,3.78,3.78
-11.25,-1.69,3.45,8.05,8.05,8.05
-11.14,-1.23,3.56,10.22,10.22,10.15
-10.99,-0.78,3.46,9.1,8.82,8.82
-10.83,-0.81,3.31,8.26,8.61,8.61
-10.81,-0.87,3.25,11.2,11.83,11.83
-10.82,-0.72,3.21,14.21,14.21,14.21
-10.84,-0.48,3.22,16.24,16.24,16.24
-11.05,-0.41,3.17,17.01,17.01,17.01
-11.26,-0.5,3.14,18.97,19.39,19.39
-11.28,-0.22,3.04,21.35,21.7,21.7
-11.27,0.15,2.96,23.45,23.45,23.66
-10.94,1.53,2.68,23.73,23.73,23.66
-10.52,2.42,2.46,21.49,21.49,20.65
-10.08,3.2,2.38,17.5,17.5,16.8
-9.48,3.51,2.31,13.93,13.37,13.37
-9.15,3.52,2.24,9.17,9.17,8.75
-7.92,3.67,2.41,5.11,5.95,5.95
-7.42,3.8,2.49,7.91,8.26,8.89
-7.15,4.16,2.59,10.01,10.01,10.22
-6.75,4.52,2.6,11.27,11.27,11.55
-6.48,4.62,2.59,13.65,13.65,13.93
-6.39,4.88,2.62,17.64,17.64,35.56
-6.33,5.62,2.62,18.62,18.62,18.48
-6.27,5.99,2.53,18.83,18.83,18.83
-5.96,6.23,2.52,19.95,20.02,20.02
-5.72,6.61,2.34,19.88,19.88,19.32
-5.47,7.08,2.34,17.57,17.57,17.57
-5.34,7.15,2.26,15.26,15.26,15.26
-5.01,7.18,2.17,15.26,15.26,15.26
-4.8,7.37,2.16,15.33,15.33,15.33
-4.56,7.66,2.2,14.35,14.35,14.35
-4.15,8.29,2.33,10.64,10.64,10.15
-3.68,8.33,2.16,6.3,6.3,6.02
-3.23,8.21,2.13,5.46,5.46,5.6
-2.78,8.14,2.1,6.02,6.02,6.02
-2.32,8.53,2.2,5.6,5.6,5.39
-1.94,8.63,2.19,3.5,3.5,3.29
-1.5,8.63,2.14,2.03,2.03,2.03
-1.15,8.53,2.09,2.66,2.66,2.66
-0.78,8.55,2.15,3.22,3.15,3.15
-0.53,8.75,2.16,2.87,2.66,2.66
-0.28,8.59,2.22,2.94,2.94,3.36
0.08,8.29,2.19,6.58,6.58,6.58
0.48,8.37,2.21,8.47,8.47,8.47
0.93,8.65,2.25,7.49,6.65,6.65
1.08,8.92,2.29,4.06,4.06,3.22
1.14,8.69,2.21,2.03,2.03,2.03
1.34,8.55,2.12,2.66,2.66,2.66
2.05,8.64,2.1,0.77,0.77,0.77
2.12,8.33,2.1,3.29,3.64,3.64
2.37,8.37,2.12,4.76,4.76,4.76
2.62,8.63,2.07,4.13,3.5,3.5
2.8,8.68,2.12,2.52,2.52,2.52
2.76,8.34,2.08,5.25,5.74,5.74
2.97,8.28,1.99,8.68,8.68,8.68
3.3,8.57,1.9,8.82,8.82,8.82
3.52,8.6,1.9,7.42,7.42,7.42
3.71,8.43,1.94,6.23,6.23,6.23
4.13,8.63,1.94,4.76,4.13,4.13
4.34,8.56,1.9,3.36,3.43,3.43
4.09,7.98,1.82,5.11,5.39,6.44
4.06,8.05,1.95,8.54,8.54,8.54
4.26,8.59,2.11,5.32,5.32,4.69
4.08,8.58,2.18,1.47,1.47,1.05
3.73,8.36,2.12,-1.05,-1.05,-1.05
3.91,8.56,2.12,-2.17,-2.17,-2.8
3.88,8.67,1.95,-3.99,-3.99,-3.99
3.52,8.55,1.9,-2.73,-2.73,-2.73
3.18,8.61,1.96,-0.98,-0.7,-0.7
3.25,8.83,1.96,-0.49,-0.49,-0.7
3.55,8.88,1.86,-2.17,-2.87,-3.08
3.39,8.65,1.79,-3.85,-3.85,-3.57
2.87,8.32,1.88,-1.61,-1.26,-1.26
2.84,8.39,1.87,2.59,2.59,2.73
3.19,8.99,1.83,0.7,0.7,0.07
3.38,9.25,1.81,-3.5,-4.9,-5.6
3.01,8.97,1.9,-7.98,-7.98,-8.33
2.29,8.47,1.94,-7.42,-7.42,-7.21
2.02,8.76,1.92,-5.32,-5.32,-5.53
2.02,9.09,1.92,-8.33,-8.33,-8.82
1.84,8.89,1.97,-10.85,-10.85,-10.99
1.51,8.65,2.02,-9.66,-9.66,-9.66
1.2,8.62,2.05,-7.07,-7.07,-7.07
1.32,9.13,2.1,-7.98,-7.98,-7.98
1.17,9.12,2.13,-11.9,-11.9,-12.25
0.87,8.65,2.14,-11.76,-11.76,-11.76
0.55,8.46,2.15,-9.1,-9.1,-9.1
0.33,8.82,2.28,-9.8,-9.8,-9.8
0.07,9,2.34,-11.55,-12.04,-12.04
-0.08,8.55,2.31,-10.78,-10.78,-9.87
-0.47,8.37,2.43,-5.88,-5.39,-5.39
-0.65,8.93,2.61,-6.86,-6.86,-7.56
-1.04,9.23,2.57,-10.85,-10.85,-11.27
-1.29,8.88,2.55,-12.04,-12.04,-12.04
-1.52,8.58,2.63,-10.85,-10.85,-10.71
-1.92,8.77,2.77,-12.6,-12.6,-12.6
-2.68,8.53,2.8,-13.58,-13.44,-13.44
-3.04,7.89,2.84,-9.87,-9.87,-9.24
-3.14,7.93,2.91,-5.04,-5.04,-5.04
-3.33,8.43,2.93,-6.37,-7.21,-7.21
-3.66,8.53,2.84,-9.59,-9.59,-9.59
-3.96,7.93,2.86,-8.4,-7.28,-7.28
-4.24,7.8,2.74,-3.57,-2.73,-2.73
-4.36,8.47,2.7,-4.34,-4.34,-4.34
-4.75,8.54,2.67,-9.59,-9.59,-9.59
-5.08,7.84,2.65,-9.87,-9.87,-9.87
-5.49,7.27,2.72,-7,-7,-7
-5.99,7.48,2.84,-7.42,-7.98,-7.98
-6.46,7.42,2.87,-9.66,-9.66,-9.8
-6.3,7.1,2.79,-8.33,-8.33,-8.33
-5.92,6.87,2.77,-6.16,-5.74,-5.74
-6.12,7,2.8,-5.53,-5.53,-5.67
-6.78,6.97,2.83,-8.89,-8.89,-9.87
-6.91,6.59,2.79,-11.13,-11.13,-11.13
-6.47,6.14,2.8,-9.31,-9.31,-9.31
-6.56,6.12,2.95,-8.54,-8.54,-8.54
-7.39,5.77,3.01,-9.8,-9.8,-9.24
-7.44,5.1,2.89,-3.71,-3.71,-3.71
-6.93,5.34,2.87,0.91,0.91,0.91
-7.01,5.79,2.91,-0.77,-2.03,-2.03
-7.45,5.38,2.82,-6.09,-6.09,-6.09
-8.11,4.58,2.8,-5.6,-5.11,-5.11
-8.51,4.23,2.76,0.35,0.35,0.7
-8.46,4.57,2.79,0.63,-0.28,-0.84
-8.62,4.68,2.76,-4.34,-5.74,-6.44
-8.97,3.93,2.71,-7.7,-7.63,-7.63
-9.34,3.47,2.81,-4.9,-4.9,-4.48
-9.54,3.82,2.94,-4.41,-4.41,-4.83
-9.77,4.07,2.86,-8.82,-8.82,-9.31
-9.55,4.06,2.78,-13.65,-13.65,-14.07
-9.24,3.87,2.77,-15.89,-16.31,-16.31
-9.02,3.37,2.87,-15.89,-15.89,-15.89
-9.15,2.95,3.05,-14.14,-14,-14
-9.49,2.49,3.02,-12.32,-11.55,-10.99
-9.36,2.3,3.02,-8.4,-8.4,-6.86
-8.99,2.55,3.03,-5.6,-5.6,-5.53
-8.76,2.77,3.15,-8.26,-8.26,-8.82
-8.9,2.57,3.26,-11.27,-11.27,-11.55
-9.25,1.88,3.25,-11.48,-11.48,-11.27
-9.23,1.32,3.24,-7.91,-7.91,-7.56
-9.13,1.34,3.16,-4.76,-4.76,-4.48
-8.99,1.62,3.17,-4.34,-4.34,-4.34
-9.1,1.42,3.12,-4.9,-4.9,-4.9
-9.53,0.67,3.11,-3.43,-3.43,-3.43
-9.67,0.51,3.11,-1.19,-1.19,-1.19
-9.45,0.9,3.13,-3.22,-3.22,-3.92
-9.55,0.93,3.09,-8.75,-8.75,-10.15
-10.12,-0.08,3.14,-10.36,-10.36,-10.36
-10.45,-0.52,3.24,-7.07,-7.07,-7.07
-10.25,-0.17,3.32,-7.42,-7.77,-7.77
-9.74,0.29,3.17,-12.53,-13.02,-13.02
-9.28,0.28,3.13,-15.82,-15.82,-16.17
-8.8,0.2,3.12,-18.34,-18.34,-18.69
-8.73,-0.46,3.14,-18.9,-18.9,-18.9
-9.01,-1.15,3.19,-13.58,-12.88,-12.88
-9.31,-1.39,3.24,-9.52,-8.26,-8.26
-9.38,-1.41,3.26,-6.86,-6.86,-6.86
-9.39,-1.48,3.33,-7,-7,-7
-9.6,-1.61,3.34,-7.14,-7.42,-7.42
-9.68,-1.57,3.43,-8.61,-8.96,-9.8
-9.72,-1.57,3.55,-11.41,-11.69,-12.11
-9.92,-1.67,3.6,-12.67,-12.46,-12.46
-10.14,-1.85,3.74,-11.83,-11.62,-11.62
-10.2,-1.92,3.71,-10.5,-10.5,-10.5
-10.37,-2.1,3.76,-8.19,-7,-7
-10.7,-2.3,3.76,-3.43,-2.8,-2.8
-10.68,-2.15,3.8,2.03,2.17,2.17
-10.44,-1.45,3.84,3.01,3.01,2.94
-10.19,-1.13,3.82,1.19,1.19,1.19
-10.13,-1.04,3.79,-0.56,-0.56,-0.56
-10.27,-1.34,3.73,0,0.21,0.21
-10.63,-1.8,3.78,4.2,4.62,4.62
-10.73,-1.77,3.77,7.42,7.7,7.7
-10.59,-1.46,3.68,9.38,9.52,9.52
-10.57,-1.28,3.62,10.78,10.99,11.2
-10.78,-1.3,3.61,12.6,12.6,12.6
-10.9,-1.09,3.66,13.02,13.02,13.02
-11,-1.01,3.63,12.46,12.46,12.46
-10.92,-1.04,3.5,13.79,13.79,13.79
-10.77,-0.8,3.39,17.85,17.85,17.85
-10.8,-0.45,3.39,19.46,20.09,20.09
-10.88,-0.29,3.5,21.21,21.49,21.49
-10.92,-0.16,3.37,23.66,23.66,23.66
-10.61,0.35,3.21,26.74,26.74,26.74
-10.25,1.23,3.13,25.9,25.9,25.9
-10.01,1.76,3.08,23.87,23.66,23.66
-10.24,2.12,3.11,22.12,21.77,21.77
-10.49,2.08,3.03,20.44,20.44,20.72
-10.41,2.23,2.9,21.7,21.7,21.84
-10.27,2.75,2.75,22.47,22.47,22.19
-9.86,3.21,2.68,20.79,20.79,20.79
-9.51,3.66,2.65,18.2,18.2,0.28
-9.26,3.91,2.58,14.7,14.7,14.21
-8.94,4.06,2.52,11.48,11.48,11.48
-8.48,4.2,2.47,9.8,9.8,9.8
-8.05,4.37,2.51,9.94,10.29,10.29
-6.39,5.31,2.44,14.21,14.07,14.07
-6.03,5.54,2.42,13.09,13.09,12.88
-5.76,5.74,2.52,12.6,12.6,12.6
-5.74,5.8,2.57,14.14,14.14,14.14
-5.58,6.03,2.56,15.82,15.82,15.82
-5.1,6.32,2.47,17.22,17.71,17.71
-4.57,6.64,2.34,18.69,18.9,18.97
-4.35,7.14,2.35,18.97,18.9,18.9
-4.02,7.42,2.33,17.99,18.06,18.06
-3.66,7.53,2.29,18.76,18.83,18.83
-2.68,8.48,2.15,15.33,14.98,14.98
-2.25,8.58,2.06,12.6,11.55,11.55
-1.62,8.64,2.02,9.52,9.24,8.33
-0.88,8.55,1.91,6.37,5.88,5.88
-0.53,8.11,1.91,4.69,4.9,4.9
-0.19,7.8,1.96,7.7,7.7,8.26
0.07,7.75,1.95,10.64,11.48,11.97
0.44,8.04,1.86,12.88,12.88,12.74
0.86,8.52,1.9,11.27,10.15,9.8
1.34,8.73,1.97,7.35,7.35,6.51
1.72,8.51,1.81,5.18,5.04,5.04
2,8.44,1.7,5.39,5.39,5.32
2.41,8.83,1.79,3.36,3.36,3.36
2.42,8.91,1.81,0.63,0.21,0.21
2.45,8.51,1.74,2.03,2.03,2.03
2.62,8.29,1.57,7.07,7.07,7.07
2.74,8.69,1.56,9.38,9.38,9.38
2.79,8.9,1.5,7.21,7.21,7.21
2.96,8.85,1.39,6.02,6.02,6.02
3.1,8.55,1.22,6.16,6.16,6.16
3.24,8.77,1.31,4.27,4.27,4.27
3.14,9.01,1.41,-0.21,-0.21,-0.21
2.9,8.61,1.42,-2.73,-2.59,-2.59
2.47,8.26,1.45,-0.98,-0.7,-0.7
2.3,8.91,1.65,-0.42,-0.42,-0.56
2.19,9.15,1.72,-2.31,-2.31,-2.38
2.11,9.08,1.71,-2.1,-2.1,-1.96
1.99,8.98,1.71,-0.07,-0.07,0.21
1.98,9.38,1.73,0.49,0.49,0.35
2.04,9.7,1.77,-3.78,-3.78,-3.78
1.92,9.62,1.82,-6.72,-7.21,-7.21
1.5,8.97,1.86,-6.23,-5.74,-5.74
1.37,9.29,1.73,-3.01,-3.01,-3.64
1.06,9.23,1.72,-4.13,-4.13,-4.13
0.89,8.87,1.78,-1.12,-0.7,-0.7
0.93,9.1,1.82,0.14,0.14,0.14
1.1,9.63,1.91,-3.71,-3.71,-3.71
0.91,9.5,1.99,-8.4,-8.4,-8.4
0.62,8.97,2.02,-7.49,-7.49,-7.49
0.47,9.38,1.82,-4.83,-5.53,-5.95
0.43,9.34,1.75,-8.12,-8.12,-8.47
0.02,8.97,1.78,-7.7,-7.7,-7.49
-0.4,8.61,1.82,-5.46,-4.83,-4.62
-0.52,9.23,1.88,-5.46,-6.02,-6.02
-0.55,9.53,1.9,-13.02,-13.02,-13.65
-0.6,9.16,1.87,-15.19,-15.19,-15.26
-1.08,8.65,1.89,-12.74,-12.74,-12.32
-1.27,8.88,1.96,-11.62,-11.62,-12.04
-1.26,9.25,2,-14.98,-15.61,-15.61
-1.46,9.01,2.22,-20.02,-20.02,-20.09
-1.9,8.4,2.34,-18.55,-18.55,-18.06
-2.19,8.59,2.46,-16.45,-16.73,-16.73
-2.37,8.87,2.42,-19.74,-19.74,-19.74
-2.49,8.68,2.34,-20.09,-19.53,-19.53
-2.73,8.1,2.49,-15.05,-13.23,-13.23
-3.2,7.98,2.66,-7.21,-7.21,-6.65
-3.64,8.31,2.79,-5.74,-5.74,-5.74
-3.6,8.62,2.74,-7.35,-7.35,-7.35
-3.4,8.39,2.64,-7.42,-7.42,-7.42
-3.56,8.32,2.6,-7.91,-8.19,-8.19
-4.26,8.34,2.71,-13.16,-13.16,-13.16
-4.82,7.91,2.73,-15.47,-15.33,-15.33
-4.92,7.52,2.69,-13.93,-12.81,-12.81
-4.93,7.7,2.72,-11.69,-11.69,-11.83
-5.32,7.81,2.74,-14.63,-14.63,-14.63
-5.69,7.34,2.79,-14.35,-13.51,-13.51
-5.7,6.8,2.82,-9.38,-9.38,-7.91
-5.67,7.32,2.98,-6.37,-6.37,-6.37
-5.75,7.77,3.02,-13.3,-13.3,-13.3
-6.03,7.39,3.01,-19.53,-19.53,-19.53
-6.45,6.42,2.96,-17.29,-16.52,-16.52
-6.98,6.26,3,-11.41,-10.78,-10.78
-7.03,6.63,2.99,-8.68,-8.61,-8.61
-6.92,6.7,2.93,-8.61,-8.61,-8.61
-6.62,6.53,2.87,-8.61,-8.61,-8.61
-6.71,6.4,3.01,-9.66,-9.66,-9.94
-6.99,6.24,3.09,-11.55,-12.18,-12.46
-6.99,5.97,3.03,-13.86,-14,-14
-7,5.75,3.06,-15.05,-15.05,-15.05
-7.25,5.44,3.12,-15.4,-15.61,-15.47
-7.57,5.28,3.22,-15.82,-16.03,-16.03
-7.77,5.09,3.2,-16.17,-16.17,-16.03
-7.52,4.83,3.17,-15.4,-15.4,-15.26
-7.26,4.59,3.21,-13.51,-13.23,-13.23
-7.55,4.45,3.35,-11.69,-11.69,-11.48
-8.01,4.4,3.26,-10.92,-10.92,-10.92
-7.92,4.32,3.12,-10.29,-10.29,-10.15
-7.62,4.35,3.09,-10.01,-10.01,-10.01
-7.67,4.23,3.17,-11.27,-11.27,-11.27
-8.07,3.7,3.26,-12.25,-12.25,-12.25
-8.29,3.08,3.32,-10.36,-10.36,-10.36
-8.29,3.05,3.33,-9.94,-9.94,-9.94
-8.41,3.16,3.35,-12.11,-12.39,-12.39
-8.9,2.75,3.31,-13.58,-13.3,-13.3
-9.09,2.33,3.19,-11.48,-10.22,-10.22
-9.1,2.47,3.2,-8.54,-8.54,-8.54
-8.88,2.63,3.19,-10.64,-10.64,-10.64
-9.13,2.34,3.06,-12.39,-12.67,-12.67
-9.4,1.79,3.02,-12.46,-12.46,-12.46
-9.44,1.64,3.06,-11.62,-11.62,-11.62
-9.31,1.6,3.15,-13.72,-13.86,-13.86
-9.55,0.98,3.13,-15.26,-15.19,-15.19
-9.86,0.48,3.24,-12.39,-12.39,-11.97
-10.05,0.4,3.29,-10.22,-9.73,-9.73
-9.59,0.82,3.22,-10.5,-10.5,-10.85
-9.38,0.89,3.05,-14.7,-14.7,-14.7
-9.49,0.59,3.05,-15.68,-15.75,-15.75
-10.03,-0.11,3.3,-14.77,-14.77,-14.77
-10.36,-0.49,3.38,-12.88,-12.88,-12.88
-10.55,-0.75,3.26,-10.08,-9.59,-9.59
-10.35,-0.46,3.1,-6.02,-6.02,-6.02
-9.77,0.09,3.12,-6.51,-6.86,-6.86
-9.7,0.24,3.29,-13.51,-13.51,-14.21
-9.99,-0.47,3.24,-18.9,-18.9,-18.9
-10.08,-1.23,3.21,-18.06,-18.06,-18.06
-9.9,-1.25,3.29,-17.36,-17.36,-17.36
-9.94,-1.44,3.44,-18.97,-18.97,-18.97
-9.8,-1.72,3.55,-18.34,-18.34,-18.34
-9.33,-1.7,3.48,-17.01,-17.01,-17.01
-9.19,-1.72,3.5,-15.82,-15.61,-15.61
-9.25,-2.02,3.55,-13.16,-12.67,-12.67
-9.33,-2.22,3.65,-8.96,-8.96,-8.47
-9.49,-2.2,3.78,-5.67,-5.32,-5.32
-9.61,-2.1,3.75,-3.36,-3.08,-3.08
-9.7,-2.11,3.66,-1.68,-1.4,-1.4
-9.89,-2.25,3.72,1.68,2.1,2.1
-9.99,-2.13,3.8,3.71,3.71,3.71
-10.12,-1.87,3.84,2.45,2.45,2.45
-10.08,-1.73,3.76,0.42,0.21,0.21
-10.14,-1.92,3.69,0.84,0.84,1.4
-10.23,-2.03,3.7,3.71,3.71,4.27
-10.19,-1.82,3.73,5.46,5.32,5.32
-10.14,-1.82,3.68,5.04,5.04,5.11
-10.07,-1.89,3.63,6.16,6.16,6.37
-10.15,-1.97,3.64,7.49,7.98,8.26
-10.44,-2,3.66,9.31,9.31,9.87
-10.46,-1.94,3.67,11.06,11.06,11.2
-10.37,-1.72,3.62,12.11,12.11,12.11
-10.48,-1.5,3.56,13.79,13.79,14.14
-10.7,-1.34,3.6,15.05,15.05,15.05
-10.97,-1.2,3.62,16.38,16.38,16.38
-10.9,-0.86,3.55,18.48,18.48,18.48
-10.74,-0.44,3.42,19.74,19.81,19.81
-10.53,-0.01,3.3,21.07,21.07,21.28
-10.43,0.2,3.26,22.82,22.82,23.8
-10.67,0.25,3.25,25.83,25.83,26.18
-10.86,0.41,3.27,28.91,28.91,29.05
-10.83,0.79,3.29,28.84,28.84,28.63
-10.64,1.26,3.17,25.34,25.34,25.34
-10.31,1.7,3.02,22.89,22.26,22.26
-10.38,1.78,2.86,21.77,21.77,21.77
-10.69,1.76,2.8,24.22,24.64,24.64
-10.74,2.14,2.85,26.39,26.6,26.6
-10.26,2.94,2.71,27.02,26.74,26.46
-9.45,3.85,2.55,23.94,23.94,21.98
-8.67,4.28,2.37,16.87,16.87,16.87
-8.71,3.88,2.44,14.14,14.28,14.28
-8.77,3.71,2.48,16.66,16.66,17.01
-8.12,4.2,2.46,18.2,18.2,18.2
-7.44,4.74,2.34,15.89,15.89,15.89
-6.59,5.11,2.32,14.49,14.49,14.49
-6.38,4.82,2.36,17.64,17.64,17.64
-6.34,4.71,2.39,22.68,24.5,24.5
-5.54,6.32,2.5,26.39,26.04,26.04
-5.16,6.57,2.37,24.92,24.57,24.71
-4.73,6.67,2.15,24.99,24.99,25.27
-4.71,6.94,2.1,25.41,25.41,25.41
-4.37,7.26,1.94,26.04,26.04,25.97
-4.25,7.52,1.89,25.48,25.48,25.2
-3.96,7.87,1.77,22.89,22.89,22.47
-2.87,8.16,1.57,17.64,17.29,17.29
-2.49,8.32,1.6,14.91,14.91,14.7
-1.76,8.46,1.54,12.46,12.25,12.25
-1.33,8.23,1.46,10.43,10.43,10.29
-0.55,8.05,1.4,10.22,10.22,10.36
0.28,8.2,1.43,10.57,10.57,10.57
1.05,8.52,1.41,9.59,9.59,9.59
1.65,8.53,1.4,7.77,7.77,7.28
2.09,8.39,1.41,5.95,5.6,5.6
2.08,8.46,1.57,2.38,1.68,0.77
2.05,8.37,1.54,-0.91,-1.12,-1.33
2.15,7.97,1.32,0.28,0.91,0.91
2.25,8.08,1.27,3.78,3.78,3.71
2.03,8.66,1.31,3.43,3.01,3.01
1.72,8.82,1.37,1.96,1.89,1.89
1.59,8.8,1.37,1.33,1.33,1.12
1.41,9.07,1.37,-2.1,-2.1,-2.1
1.12,9.38,1.34,-8.26,-8.68,-8.68
0.83,9.16,1.36,-8.82,-8.54,-8.54
0.53,9.07,1.47,-6.44,-6.09,-6.09
0.26,9.39,1.55,-4.76,-4.76,-4.83
0,9.59,1.58,-5.53,-5.53,-5.74
-0.11,9.3,1.6,-5.04,-5.04,-3.85
-0.01,9.09,1.54,-1.68,-1.68,-0.98
0.31,9.5,1.55,-1.26,-1.26,-2.45
0.42,9.79,1.61,-5.67,-5.67,-6.37
0.25,9.46,1.69,-9.94,-10.29,-10.29
0.09,9.3,1.75,-11.27,-11.27,-11.34
-0.06,9.47,1.74,-13.86,-13.86,-14.07
-0.34,9.18,1.68,-15.68,-15.68,-15.75
-0.66,8.84,1.79,-14.56,-14.56,-14.56
-0.76,8.77,1.85,-12.88,-12.81,-12.81
-0.73,9.13,1.86,-12.6,-12.6,-12.88
-1.24,8.65,2.09,-13.65,-13.65,-13.65
-1.33,8.68,2.14,-10.22,-10.22,-10.22
-1.46,9,2.21,-9.03,-9.03,-9.03
-1.75,9.01,2.29,-9.45,-9.45,-9.52
-1.79,8.71,2.24,-8.33,-8.33,-8.05
-1.66,8.74,2.11,-8.4,-8.4,-8.4
-2.59,7.96,2.39,-21.91,-21.91,-21.91
-2.87,8.07,2.45,-20.86,-20.86,-20.86
-3.27,8.2,2.57,-23.1,-23.1,-23.1
-3.54,7.95,2.65,-23.59,-23.17,-23.17
-3.47,7.62,2.72,-20.86,-20.86,-20.09
-3.69,7.82,2.81,-18.41,-18.48,-18.48
-3.97,8.08,2.97,-19.88,-20.37,-20.65
-4.47,7.68,3.01,-20.79,-20.79,-20.79
-4.4,7.38,2.99,-17.92,-17.92,-17.92
-4.55,7.62,3.07,-15.68,-15.68,-15.68
-5.68,7.02,3.1,-15.75,-15.75,-15.61
-5.5,6.68,3.03,-12.53,-12.53,-10.99
-5.23,6.74,3.01,-9.24,-9.24,-9.38
-5.84,6.92,3.1,-12.18,-12.18,-12.18
-6.71,6.54,3.12,-14.84,-14.84,-14.84
-7.19,5.73,3.04,-10.29,-10.29,-10.29
-6.83,5.75,3.01,-6.3,-6.3,-5.67
-6.84,6.16,3.01,-5.95,-5.95,-6.16
-7.48,5.87,2.93,-7.21,-7.21,-7.21
-7.82,5.35,2.82,-5.46,-5.46,-5.46
-7.46,5.58,2.85,-3.15,-3.15,-3.15
-7.32,5.83,2.92,-6.58,-7.35,-7.35
-8.19,5.18,2.86,-14,-14,-14.49
-8.57,4.56,2.96,-13.93,-13.93,-13.93
-8.37,4.23,3.04,-11.9,-11.62,-11.62
-8.02,4.56,3.08,-12.81,-12.81,-13.3
-8.23,4.15,2.9,-16.31,-16.31,-15.82
-8.38,3.58,3,-14.07,-14.07,-13.72
-8.21,3.44,3.11,-12.74,-12.74,-12.74
-8.6,3.33,2.97,-12.95,-12.95,-12.74
-8.77,3.23,2.89,-13.3,-13.3,-13.44
-8.76,3.13,2.97,-13.58,-13.58,-13.58
-8.74,2.76,3.1,-13.23,-13.16,-13.16
-9.21,2.22,3.2,-13.3,-13.3,-13.16
-9.49,1.85,3.06,-12.04,-12.04,-12.04
-9.51,1.79,2.96,-10.57,-10.57,-10.36
-9.54,1.64,2.97,-9.45,-9.31,-9.31
-9.28,1.58,3.01,-9.31,-9.31,-9.52
-9.64,1.41,3.08,-10.92,-10.92,-10.92
-9.9,1.07,2.96,-11.34,-11.34,-11.34
-9.83,0.95,2.93,-11.27,-11.27,-11.27
-9.74,0.81,3.01,-11.55,-11.55,-11.55
-9.89,0.45,3.04,-11.9,-11.9,-11.9
-10.05,0.25,3.06,-12.32,-12.25,-12.25
-10.03,0.29,3.05,-13.02,-13.02,-13.09
-10.1,0.22,3.06,-13.09,-13.09,-13.09
-10.16,-0.3,3,-10.29,-10.29,-10.29
-9.82,-0.16,3.03,-9.59,-9.59,-9.59
-9.65,0.03,3.02,-12.25,-12.25,-12.88
-9.99,-0.36,3.12,-16.31,-16.31,-16.31
-10.07,-1.29,3.2,-14.49,-14.49,-14.49
-9.79,-1.18,3.21,-13.3,-13.3,-13.3
-9.59,-1.09,3.3,-16.38,-16.38,-16.38
-9.85,-1.5,3.2,-17.71,-17.29,-17.29
-10,-1.85,3.19,-15.19,-14.21,-13.58
-9.95,-1.79,3.18,-11.27,-11.27,-10.43
-9.57,-1.37,3.1,-9.8,-9.8,-9.66
-9.24,-1.03,3.11,-10.64,-10.64,-10.85
-9.69,-2.04,3.27,-8.05,-6.51,-5.53
-9.79,-2.32,3.38,-1.4,-1.4,0.21
-9.76,-1.81,3.48,0.56,0.56,-0.56
-9.88,-1.92,3.59,-2.45,-2.45,-2.8
-9.99,-2.49,3.64,-1.4,-1.4,-1.05
-10.01,-2.37,3.75,0.84,0.84,0.91
-10.44,-2.4,3.69,6.72,8.19,8.19
-10.63,-1.98,3.78,15.96,15.96,15.96
-10.54,-1.74,3.73,16.66,16.59,16.59
-10.5,-1.54,3.5,15.33,15.54,15.54
-10.6,-1.5,3.45,16.38,16.38,16.66
-10.6,-1.48,3.37,17.85,17.85,18.13
-10.62,-1.45,3.38,19.67,19.81,19.81
-10.62,-1.11,3.24,25.2,25.76,25.83
-10.39,-0.67,3.22,26.04,25.97,25.97
-10.16,-0.11,3.12,24.43,24.43,24.29
-10.1,0.22,3.1,23.38,23.38,23.38
-10.25,0.35,3.05,23.24,23.38,23.38
-10.38,0.52,2.95,24.29,24.64,24.64
-10.54,0.56,2.88,26.11,26.11,26.67
-10.6,0.81,2.85,29.05,29.26,29.26
-10.38,1.54,2.9,29.68,29.68,29.4
-10.3,1.88,3.01,26.04,26.04,25.62
-10.21,2.07,2.92,23.03,23.03,22.54
-10.09,2.21,2.77,21.35,21.35,21.35
-9.86,2.62,2.74,21.14,20.93,20.93
-9.86,3.08,2.78,19.67,19.67,19.04
-9.51,3.4,2.7,18.06,18.06,17.78
-8.95,3.69,2.57,17.85,17.85,17.85
-8.65,3.99,2.51,17.57,17.57,17.57
-8.3,4.37,2.58,15.75,15.75,15.75
-8.24,4.37,2.64,14.21,14.21,14.21
-8.04,4.24,2.6,15.89,16.17,16.17
-7.35,4.66,2.53,18.41,18.41,18.41
-6.82,5.43,2.51,16.94,16.94,16.59
-6.35,5.6,2.5,15.19,15.19,15.19
-6.42,5.35,2.59,16.38,16.38,16.87
-6.4,5.39,2.66,21.84,21.84,21.84
-5.67,6.47,2.57,24.85,24.85,24.78
-4.92,6.95,2.35,21.84,21.84,21.84
-4.47,7.17,2.24,19.53,19.53,19.53
-4.51,7.03,2.27,18.55,18.55,18.55
-4.27,6.92,2.23,20.58,20.58,20.58
-3.87,7.18,2.19,20.86,20.86,20.72
-3.42,7.6,2.2,18.55,18.55,18.55
-3.21,7.7,2.17,15.89,15.75,15.75
-2.92,7.62,2.09,15.54,15.75,15.75
-2.48,7.82,1.89,17.08,17.08,17.22
-1.81,8.04,1.79,17.01,17.01,17.01
-1.34,8.5,1.76,15.33,15.05,15.05
-1.41,8.75,1.81,13.79,13.58,13.16
-1.28,8.72,1.86,12.6,12.67,12.67
-1.02,8.78,1.77,11.34,11.06,11.06
-0.5,9.09,1.66,7.91,7.35,7.35
-0.07,9.26,1.62,4.34,4.06,4.06
0.3,8.48,1.41,6.44,6.79,6.79
0.33,8.66,1.62,7.42,7.42,7.35
0.55,8.99,1.76,6.65,6.37,6.3
0.86,8.76,1.76,5.74,5.74,5.74
1.28,8.74,1.69,5.46,5.46,5.46
1.44,9.06,1.61,2.24,2.24,2.24
1.57,8.94,1.52,0.49,0.42,0.42
1.78,8.65,1.32,1.47,2.03,2.03
1.9,8.61,1.23,3.36,3.36,3.36
1.36,9.23,1.52,-4.2,-4.76,-4.76
1.18,9.25,1.48,-7.42,-7.77,-7.77
0.77,9.43,1.5,-10.01,-10.36,-10.36
0.48,9.24,1.5,-12.25,-12.25,-12.04
0.32,9.01,1.5,-11.06,-10.64,-10.29
0.29,9.05,1.54,-9.45,-9.45,-9.66
0.27,9.15,1.5,-10.29,-10.29,-10.64
0.08,8.86,1.48,-10.85,-10.85,-10.85
-0.07,8.85,1.65,-10.92,-10.92,-10.92
-0.25,8.97,1.9,-13.44,-13.65,-13.65
-0.37,8.85,1.83,-14.63,-14.84,-14.84
-0.32,8.54,1.65,-14.56,-14.28,-14.14
-0.65,8.52,1.74,-14.28,-14.28,-14.56
-1.23,8.81,2.15,-18.62,-18.62,-19.25
-1.73,8.81,2.28,-21.7,-22.4,-22.54
-2.25,8.36,2.24,-22.89,-22.89,-22.68
-2.59,8.13,2.04,-19.04,-19.04,-19.04
-2.8,8.32,2.16,-17.43,-17.43,-17.43
-3.09,8.32,2.3,-16.1,-16.1,-16.1
-3.66,7.89,2.42,-12.04,-12.04,-12.04
-3.96,8,2.44,-9.17,-9.17,-9.17
-3.89,8.66,2.43,-13.58,-13.58,-13.58
-4.05,8.62,2.57,-20.93,-21.49,-21.49
-4.29,7.85,2.68,-22.54,-22.4,-22.4
-4.49,7.52,2.61,-19.95,-19.95,-19.74
-4.83,7.62,2.57,-19.53,-20.02,-20.09
-5.02,7.77,2.61,-21,-21,-21.63
-4.81,7.47,2.78,-21.56,-21.56,-21.49
-4.88,7.11,2.94,-21.07,-21.07,-21.07
-5.58,7.03,3.16,-23.17,-23.17,-23.38
-5.78,6.78,3.13,-23.59,-23.59,-23.38
-5.81,6.53,3.14,-21.56,-20.72,-20.72
-6.11,6.33,3.3,-18.76,-18.27,-18.27
-6.82,6.18,3.46,-17.5,-17.5,-17.36
-6.7,5.93,3.36,-12.46,-12.46,-11.97
-6.55,6.06,3.38,-10.99,-10.99,-11.13
-6.77,6.12,3.42,-12.81,-12.81,-13.58
-7.49,5.59,3.27,-14.14,-14.14,-14.14
-7.65,4.91,3.07,-8.82,-8.82,-8.82
-7.75,5.05,3.13,-3.08,-3.08,-3.64
-8.49,4.83,3.21,-5.81,-5.81,-5.81
-8.35,4.54,3.13,-6.3,-6.51,-6.51
-7.91,4.76,3.16,-8.68,-8.68,-10.92
-8.27,4.51,3.28,-17.5,-17.5,-17.5
-8.88,3.72,3.01,-17.99,-17.99,-17.99
-8.87,3.25,2.97,-12.81,-12.81,-12.81
-8.36,3.41,3.15,-7.98,-7.7,-7.7
-8.79,3.34,3.17,-7.21,-7.21,-7.21
-8.76,2.96,3.13,-6.23,-6.23,-6.58
-8.86,2.63,3.14,-10.64,-10.64,-11.06
-9.38,2.32,3.07,-11.97,-11.97,-11.97
-9.85,1.63,3.09,-9.8,-9.8,-9.59
-9.68,1.63,3.16,-6.79,-6.79,-6.79
-9.64,1.72,3.12,-6.93,-7.42,-7.42
-9.56,1.75,3.03,-8.47,-8.89,-8.89
-9.5,1.69,3.03,-10.22,-10.22,-10.64
-9.59,1.45,3.07,-11.83,-11.83,-11.83
-9.65,1.12,3.1,-12.6,-12.6,-12.6
-9.64,0.83,2.98,-10.5,-10.5,-10.5
-9.79,0.65,3.09,-8.96,-8.82,-8.82
-10.12,0.28,3.29,-8.4,-8.19,-8.19
-10.39,-0.17,3.33,-6.65,-6.65,-6.37
-10.2,-0.13,3.33,-5.46,-5.39,-5.39
-9.92,0.19,3.26,-5.74,-6.37,-6.37
-9.31,0.82,3.31,-10.71,-12.88,-12.88
-9.38,0.59,3.47,-18.97,-20.3,-20.3
-9.68,-0.32,3.29,-19.74,-19.74,-19.74
-9.56,-0.65,3.23,-15.96,-15.96,-15.96
-9.57,-0.66,3.25,-13.51,-13.51,-13.51
-9.81,-0.88,3.26,-10.99,-10.99,-10.99
-9.9,-1.18,3.33,-5.81,-5.81,-5.81
-9.61,-0.76,3.31,-4.76,-4.76,-4.76
-9.21,-0.67,3.36,-8.96,-8.96,-8.96
-9.48,-1.1,3.35,-11.34,-11.34,-11.48
-9.92,-1.9,3.44,-10.15,-10.15,-9.66
-9.8,-2.01,3.45,-6.79,-6.79,-6.3
-9.32,-1.36,3.38,-8.47,-8.47,-8.47
-9.31,-1.3,3.31,-12.67,-12.81,-12.81
-9.36,-1.75,3.32,-13.16,-12.67,-12.67
-9.16,-2.06,3.28,-11.41,-11.27,-10.85
-8.78,-1.96,3.23,-10.71,-10.85,-10.85
-8.79,-2.03,3.24,-10.92,-10.92,-10.92
-8.94,-2.21,3.39,-10.64,-10.64,-10.64
-9.15,-2.68,3.67,-11.27,-11.27,-11.2
-9.35,-3.34,3.76,-10.71,-10.71,-10.71
-9.42,-3.38,3.77,-9.8,-9.66,-9.66
-9.39,-3.26,3.93,-10.08,-10.08,-10.08
-9.29,-3.23,4.02,-10.43,-10.43,-10.29
-9.13,-3.02,3.93,-8.61,-8.61,-8.33
-8.89,-2.87,3.8,-6.3,-6.3,-5.95
-8.9,-2.63,3.76,1.82,1.82,1.82
-9.26,-2.66,3.9,2.52,2.52,2.52
-10.35,-3.49,3.93,3.01,3.43,4.2
-10.67,-3.52,3.98,7.7,7.7,8.12
-10.84,-3.17,4.1,9.66,9.66,9.66
-10.9,-2.96,4.06,9.59,9.73,9.73
-10.6,-2.68,3.92,10.78,10.78,11.13
-10.33,-2.21,3.82,12.39,12.39,12.67
-10.88,-2.13,3.85,20.58,20.58,21.63
-10.85,-1.76,3.73,25.06,25.06,25.06
-10.73,-1.38,3.78,24.85,24.85,24.85
-10.69,-1.11,3.7,24.15,23.94,23.94
-10.9,-1.06,3.72,23.52,23.73,23.73
-10.95,-0.94,3.57,24.36,24.36,24.57
-10.9,-0.74,3.5,25.2,25.55,25.55
-10.94,-0.54,3.44,26.6,26.6,26.6
-10.99,-0.37,3.46,28,28,28
-11.18,-0.2,3.52,28.84,29.05,29.05
-10.5,1.82,3.31,26.81,26.81,26.81
-10.08,2.42,3.25,20.86,20.86,20.86
-10.04,2.25,3.17,18.34,18.34,18.34
-10.07,2.27,3.21,18.34,18.48,18.48
-9.5,2.66,3.17,19.11,19.18,19.18
-8.79,3.12,3.11,19.67,19.67,19.6
-8.18,3.6,3.06,19.11,19.11,19.11
-7.75,3.69,3.15,18.76,18.69,18.69
-7.64,3.54,3.34,21,21.49,21.49
-7.25,3.81,3.41,24.85,24.85,24.85
-6.73,4.24,3.34,28.42,28.98,28.98
-6.07,4.58,3.26,32.41,32.9,32.9
-5.52,5.16,3.28,34.23,34.58,34.58
-5.4,5.58,3.42,34.72,34.72,34.72
-5.02,5.74,3.26,38.15,38.15,38.15
-4.58,6.33,3.06,38.85,38.85,38.92
-4.02,6.97,2.82,36.54,36.54,36.12
-3.76,7.24,2.8,32.41,32.41,31.99
-3.48,7.26,2.71,30.1,30.1,30.1
-3.36,7.31,2.59,29.19,29.19,29.19
-3.1,7.58,2.35,27.16,27.16,27.16
-2.58,7.87,2.32,23.66,23.66,23.17
-1.88,8.06,2.33,17.78,17.78,17.78
-1.35,8,2.32,14.77,14.14,14.14
-0.75,7.8,2.23,13.37,13.3,13.3
-0.04,7.73,2.22,12.88,12.88,12.74
0.64,7.7,2.17,11.69,11.69,11.69
1.35,7.6,2.06,11.69,11.69,11.76
1.98,7.48,1.92,13.65,13.65,13.65
2.46,7.66,1.92,13.86,13.86,13.86
2.92,8.02,1.93,11.76,11.76,11.76
3.1,8.18,1.86,8.26,8.26,8.26
3.27,8.35,1.7,6.79,6.79,6.79
3.43,8.3,1.54,5.67,5.6,5.46
3.36,8.23,1.48,5.25,5.25,5.32
3.14,8.24,1.47,5.46,5.46,5.46
2.92,8.39,1.55,5.39,5.25,5.25
2.68,8.54,1.58,3.57,3.57,3.29
2.33,8.85,1.61,1.61,0.63,0.63
1.87,9.1,1.75,-1.47,-1.82,-1.82
1.39,8.86,1.81,-1.89,-1.68,-1.68
1.22,9.13,1.93,-2.87,-2.87,-3.22
1.04,9.57,1.95,-6.44,-7.7,-8.4
0.89,9.48,1.92,-10.99,-10.99,-11.76
0.65,9.09,1.93,-11.76,-11.76,-11.76
0.37,9.06,2.07,-10.57,-10.57,-10.5
0.2,9.41,2.24,-11.48,-11.48,-11.83
-0.14,9.46,2.33,-13.16,-13.16,-13.16
-0.35,9.17,2.44,-7.7,-7.7,-7.7
-0.44,9.15,2.34,-7.77,-7.77,-7.63
-0.62,8.87,2.4,-4.97,-4.97,-4.97
-0.84,8.93,2.51,-1.82,-1.82,-1.82
-1.16,9.37,2.59,-3.64,-4.13,-4.13
-1.57,9.39,2.6,-6.09,-6.72,-6.72
-1.84,8.9,2.59,-5.67,-5.67,-5.67
-1.82,9.01,2.57,-3.36,-3.36,-3.36
-1.89,9.59,2.57,-5.53,-5.53,-6.02
-2.14,9.45,2.53,-7.84,-7.84,-7.84
-2.5,8.97,2.57,-5.88,-5.88,-5.88
-2.71,8.97,2.65,-3.92,-3.92,-3.71
-2.73,9,2.56,-8.89,-8.89,-8.89
-2.5,8.76,2.56,-7.63,-7.63,-7.63
-2.43,8.97,2.63,-8.12,-8.12,-8.12
-2.51,8.93,2.68,-11.83,-11.83,-11.83
-2.58,8.37,2.63,-11.83,-11.83,-11.83
-2.48,8.1,2.66,-8.4,-7.98,-7.98
-2.38,8.33,2.72,-6.3,-6.44,-6.44
-2.49,8.45,2.78,-6.79,-6.79,-6.79
-2.73,8.22,2.79,-5.95,-5.32,-4.83
-3.03,7.95,2.8,-2.52,-2.17,-2.17
-3.31,8.07,2.8,-0.21,-0.21,-0.21
-3.52,8.43,2.76,-2.03,-2.03,-2.03
-3.76,8.35,2.64,-4.83,-4.83,-5.04
-4.06,7.93,2.64,-3.57,-3.57,-3.57
-4.61,7.78,2.72,-1.4,-1.33,-1.33
-4.95,8.09,2.77,-2.87,-3.22,-3.22
-4.91,8.08,2.63,-5.25,-5.25,-5.32
-4.69,7.86,2.56,-5.39,-5.18,-5.25
-4.53,7.93,2.59,-5.88,-5.88,-6.37
-4.82,8.07,2.75,-9.94,-9.94,-9.94
-5.36,7.75,2.79,-15.54,-15.54,-15.54
-5.52,7.1,2.69,-14.28,-14.28,-13.3
-5.52,6.84,2.79,-9.45,-9.45,-9.45
-5.76,7.15,2.95,-9.1,-9.1,-9.1
-6.12,7.16,2.97,-10.64,-10.64,-10.64
-5.96,7.03,2.9,-10.78,-10.78,-10.78
-5.8,6.96,2.83,-10.78,-10.78,-10.78
-6.18,6.87,2.9,-12.81,-12.81,-13.16
-6.86,6.6,3,-14.56,-14.56,-14.56
-6.98,6.13,3.05,-13.02,-12.18,-12.18
-6.7,6,2.98,-9.03,-9.03,-8.75
-6.57,6.29,2.97,-8.54,-8.54,-8.54
-6.57,6.4,2.96,-11.06,-11.2,-11.2
-6.65,6.05,2.95,-11.9,-11.9,-11.9
-6.54,5.72,2.96,-10.92,-10.92,-10.92
-6.81,5.81,3.08,-13.23,-13.23,-13.93
-7.36,5.52,3.17,-17.71,-17.71,-18.2
-7.54,4.98,3.16,-18.34,-18.34,-18.34
-7.31,4.47,3.21,-14.49,-14.49,-13.72
-7.44,4.39,3.27,-9.31,-9.31,-9.31
-7.54,4.62,3.18,-8.33,-8.4,-8.4
-7.69,4.66,3.1,-9.38,-9.66,-9.66
-7.73,4.21,3.15,-9.87,-9.87,-9.8
-7.46,4.06,3.14,-9.31,-9.31,-9.45
-7.66,4.14,3.11,-11.69,-11.69,-11.69
-8.02,3.91,3.05,-16.17,-16.17,-16.73
-8.26,3.12,3.03,-17.64,-17.64,-17.29
-8.4,2.61,3.07,-14.35,-14.35,-14.35
-8.93,2.44,3.19,-11.41,-11.41,-11.41
-9.42,2.42,3.29,-10.15,-10.15,-10.15
-9.68,2.41,3.25,-9.73,-9.73,-9.73
-9.49,2.32,3.25,-9.52,-9.52,-9.52
-9.11,2.38,3.32,-11.9,-11.9,-11.9
-9.35,1.99,3.3,-13.58,-13.51,-13.51
-9.76,1.48,3.27,-12.04,-12.04,-11.83
-9.85,1.43,3.31,-10.71,-10.71,-10.78
-9.58,1.64,3.45,-13.23,-13.23,-13.23
-9.45,1.34,3.37,-15.4,-15.68,-15.68
-9.2,0.9,3.22,-15.54,-15.26,-15.26
-9.25,0.6,3.29,-12.95,-12.95,-12.53
-9.77,0.18,3.43,-10.08,-10.08,-10.01
-9.87,0.05,3.36,-10.5,-10.5,-10.64
-9.68,0.19,3.22,-12.04,-12.04,-12.04
-9.59,0.1,3.09,-13.79,-13.86,-13.86
-9.79,-0.34,3.14,-14.21,-14.14,-14.14
-10.11,-0.82,3.28,-12.95,-12.95,-12.95
-10.01,-0.97,3.28,-12.11,-12.11,-12.11
-9.76,-0.79,3.23,-12.39,-12.74,-12.74
-10.07,-1.33,3.29,-13.72,-13.72,-13.72
-9.97,-1.71,3.38,-12.25,-12.25,-12.25
-9.86,-1.49,3.43,-12.32,-12.32,-12.32
-9.48,-1.29,3.4,-14.98,-14.98,-14.98
-9.2,-1.12,3.34,-19.46,-19.74,-19.74
-9.19,-1.51,3.35,-21.28,-21.28,-21.28
-9.29,-2.11,3.34,-19.67,-19.67,-19.67
-9.56,-2.44,3.35,-16.1,-16.1,-16.1
-9.45,-2.54,3.42,-14.91,-14.91,-14.91
-9.23,-2.46,3.46,-14.42,-14.28,-14.28
-9.37,-2.85,3.6,-12.88,-12.6,-12.6
-9.38,-3.16,3.79,-10.36,-9.87,-9.66
-9.33,-3.26,4.01,-9.24,-9.24,-9.17
-9.26,-3.08,4.04,-9.24,-9.24,-9.24
-9.09,-2.92,3.96,-8.26,-8.26,-8.26
-8.94,-2.83,3.93,-6.72,-6.72,-6.72
-8.95,-2.85,3.91,-5.6,-5.04,-5.04
-9.29,-3.07,3.91,-2.38,-1.33,-1.33
-9.51,-3.26,3.89,2.52,2.52,3.64
-9.57,-3.26,3.81,6.44,6.86,6.86
-9.61,-3.12,3.77,8.61,8.68,8.68
-9.81,-2.97,3.82,8.19,8.05,7.7
-9.8,-2.9,3.8,6.72,6.58,6.58
-9.68,-2.86,3.68,5.39,5.11,5.11
-9.54,-2.86,3.6,4.97,5.04,5.04
-9.63,-2.91,3.6,5.53,5.6,5.67
-9.76,-2.94,3.64,6.3,6.37,6.44
-9.77,-2.95,3.62,7.56,7.84,7.84
-9.92,-2.73,3.68,10.01,10.15,10.15
-10.2,-2.71,3.75,10.71,10.71,10.71
-10.36,-2.89,3.83,12.39,12.39,12.39
-10.5,-3.05,3.85,15.82,15.82,15.82
-10.72,-2.79,3.93,18.69,18.69,18.97
-10.89,-2.49,3.9,21.21,21.21,21.21
-11.13,-2.3,3.86,23.52,24.5,24.5
-11.42,-2.13,3.89,27.44,27.44,28.35
-11.75,-1.95,3.86,30.59,30.59,30.59
-11.85,-1.37,3.83,31.71,31.71,31.71
-11.66,-0.81,3.7,31.5,31.5,31.5
-11.55,-0.54,3.58,32.27,32.27,32.27
-11.55,-0.27,3.45,33.67,33.67,33.67
-11.66,0.18,3.49,33.95,33.95,33.95
-11.78,0.26,3.44,33.95,33.95,34.16
-11.76,0.32,3.29,37.17,37.17,37.17
-11.57,0.83,3.22,39.48,39.48,39.9
-11,1.44,3.12,39.69,39.69,39.69
-10.9,2.1,3.01,35.42,35.42,35.42
-10.49,2.49,2.91,31.99,31.22,31.22
-9.82,2.81,2.67,29.12,29.12,28.35
-8.8,3.43,2.38,25.62,25.62,25.62
-8.24,3.84,2.2,20.72,20.72,20.72
-7.99,3.6,2.15,17.29,17.43,17.43
-7.45,3.41,2.07,20.79,20.79,20.79
-6.49,3.8,1.92,23.03,23.03,23.03
-5.68,4.44,1.79,21.98,21.98,21.98
-4.95,4.83,1.84,20.16,20.16,20.16
-4.76,4.88,1.87,18.69,18.69,18.69
-4.2,4.94,1.83,19.18,19.18,19.39
-3.47,5.25,1.82,20.02,20.02,20.02
-3.25,5.78,1.9,18.55,18.55,18.55
-2.71,6.02,1.84,18.55,18.55,18.55
-2.3,6.42,1.91,18.27,18.27,18.27
-2.05,6.8,1.9,17.5,17.5,17.5
-1.74,7.11,1.81,17.15,17.01,17.01
-1.36,7.63,1.82,15.4,15.4,15.33
-0.81,8.09,1.89,14.42,14.42,14.35
-0.42,8.34,1.84,11.97,11.97,11.97
-0.04,8.89,1.79,7.14,7.14,7.14
0.19,9.22,1.85,0.98,0.98,0.98
0.51,8.82,1.77,-1.26,-1.26,-1.26
0.9,8.66,1.66,-2.59,-2.59,-2.59
1,8.85,1.66,-5.39,-5.39,-5.39
0.65,8.53,1.67,-6.65,-6.65,-6.65
0.53,8.11,1.64,-4.06,-2.31,-2.31
0.51,8.21,1.5,0.21,0.56,1.05
0.42,8.86,1.54,0,0,-0.35
0.23,8.88,1.52,-2.03,-2.03,-2.03
0.09,9,1.76,-2.66,-2.66,-2.66
-0.01,9.45,1.85,-4.97,-5.6,-5.6
-0.17,9.65,1.87,-11.41,-11.41,-13.02
-0.62,9.35,1.98,-17.01,-17.01,-17.01
-0.93,8.59,2.09,-14.7,-14.07,-14.07
-1.13,8.48,2.09,-10.5,-9.1,-9.1
-1.28,9,2.22,-7.91,-7.84,-7.84
-1.46,8.91,2.15,-7.35,-7,-6.58
-1.5,8.63,2.12,-4.9,-4.06,-3.57
-1.56,8.75,2.12,-2.45,-2.45,-2.45
-1.78,9.19,2.2,-4.76,-6.65,-6.65
-2.16,9.23,2.28,-10.15,-10.78,-11.9
-2.39,8.71,2.24,-13.58,-13.58,-13.51
-2.32,8.52,2.22,-12.11,-12.11,-12.11
-2.44,8.57,2.24,-12.53,-13.09,-13.09
-2.85,8.7,2.34,-15.05,-15.33,-15.33
-3.16,8.38,2.52,-15.33,-15.33,-15.33
-3.35,8.19,2.65,-11.55,-11.55,-11.55
-3.36,8.41,2.73,-12.81,-12.81,-12.81
-3.54,8.43,2.65,-15.54,-15.54,-15.75
-3.65,8.01,2.69,-14.14,-14.14,-14.14
-3.67,7.66,2.73,-10.15,-10.15,-9.38
-4.02,7.9,2.79,-6.86,-7.07,-7.07
-4.45,8.11,2.83,-8.96,-8.96,-9.66
-4.74,7.87,2.77,-10.85,-10.85,-10.85
-4.68,7.47,2.77,-8.54,-8.54,-8.54
-4.65,7.38,2.83,-5.32,-5.32,-5.32
-5.08,7.55,2.89,-6.86,-6.86,-6.86
-5.45,7.68,2.88,-10.36,-11.27,-11.27
-5.42,7.47,2.78,-12.6,-12.6,-12.53
-4.93,7.09,2.57,-11.2,-10.85,-10.85
-5.46,7.02,2.65,-11.48,-11.48,-11.69
-6.47,6.47,2.85,-15.96,-15.96,-15.96
-6.44,5.96,2.88,-14.14,-14.14,-13.72
-6.51,6.07,2.98,-13.09,-13.09,-13.16
-6.81,6.27,3.08,-14.84,-15.19,-15.19
-6.86,6.14,3.08,-17.85,-17.85,-18.06
-6.76,5.65,3.09,-18.27,-18.27,-17.92
-6.68,5.43,3.05,-15.89,-15.89,-15.82
-6.74,5.59,3.02,-16.38,-16.38,-16.38
-7.13,5.33,3.08,-18.2,-18.2,-18.2
-7.14,4.9,3.16,-17.29,-16.87,-16.87
-6.92,4.75,3.16,-14,-14,-14
-7.07,4.85,3.26,-16.03,-16.45,-16.45
-8,4.42,3.33,-19.11,-19.18,-19.18
-8.53,3.23,3.24,-14.7,-14.7,-13.72
-8.25,3.15,3.23,-7.35,-7.35,-6.93
-8.25,3.73,3.42,-7.14,-7.14,-7.49
-8.87,3.69,3.45,-10.08,-10.08,-10.08
-8.9,3.49,3.38,-12.18,-12.6,-12.6
-9.06,3.4,3.47,-14.84,-16.03,-16.03
-9.66,2.68,3.35,-16.52,-16.24,-16.24
-9.81,2.35,3.26,-12.11,-12.11,-11.62
-9.8,2.46,3.29,-9.8,-9.31,-9.17
-9.27,2.8,3.36,-9.87,-9.87,-11.13
-9.24,2.48,3.37,-13.65,-13.65,-13.65
-9.52,1.87,3.39,-13.86,-13.72,-13.72
-9.54,1.53,3.38,-12.53,-12.53,-12.46
-9.07,1.49,3.34,-12.67,-13.02,-13.23
-9.07,1.26,3.29,-14,-14,-14
-9.48,0.69,3.32,-13.3,-13.02,-13.02
-9.42,0.61,3.33,-12.18,-12.25,-12.53
-8.93,0.73,3.4,-14.35,-15.33,-16.03
-9.27,0.19,3.35,-17.71,-17.71,-17.71
-9.76,-0.55,3.44,-14.28,-13.58,-13.58
-9.75,-0.64,3.5,-10.85,-10.57,-10.57
-9.69,-0.4,3.41,-10.36,-10.36,-10.43
-9.85,-0.56,3.33,-10.08,-9.59,-9.24
-9.96,-0.98,3.32,-7,-7,-5.6
-9.69,-0.61,3.39,-4.69,-4.69,-4.69
-9.52,-0.22,3.35,-11.27,-11.27,-11.27
-9.77,-0.57,3.29,-15.61,-15.61,-15.61
-9.83,-1.42,3.2,-14.98,-14.7,-14.7
-9.53,-1.36,3.25,-14.14,-14.35,-14.35
-9.59,-1.45,3.3,-15.68,-16.38,-16.38
-9.76,-1.84,3.32,-16.52,-15.61,-15.61
-9.74,-2.38,3.31,-12.95,-12.11,-10.92
-9.01,-1.76,3.46,-9.31,-9.87,-9.87
-9.03,-1.84,3.48,-14.63,-14.63,-15.05
-8.95,-2.25,3.41,-16.45,-16.45,-16.66
-8.88,-2.48,3.27,-16.03,-16.03,-15.47
-9.27,-2.91,3.11,-12.32,-11.83,-11.83
-9.33,-2.99,3.09,-5.6,-5.6,-5.11
-9.35,-2.84,3.13,-3.15,-2.8,-2.59
-9.58,-3.27,3.12,-2.59,-2.59,-2.59
-9.84,-3.56,3.14,-1.82,-1.82,-1.75
-9.94,-3.55,3.3,-3.99,-3.99,-3.99
-9.98,-3.46,3.28,-5.11,-5.11,-5.11
-9.81,-3.33,3.21,-4.97,-4.97,-4.76
-9.56,-3.16,3.18,-4.13,-4.13,-4.13
-9.47,-3.11,3.26,-3.5,-2.94,-2.94
-9.42,-3.22,3.25,-0.77,-0.77,-0.77
-9.53,-3.31,3.25,2.8,2.8,2.94
-9.49,-3.22,3.34,4.9,4.9,4.97
-9.55,-3.24,3.38,5.25,5.25,5.39
-9.86,-3.47,3.4,6.09,6.09,6.09
-10,-3.42,3.37,8.26,8.26,8.26
-9.88,-3,3.4,8.96,8.75,8.75
-10.05,-2.74,3.42,7.49,7.49,7.49
-10.13,-2.75,3.35,8.19,8.19,8.4
-10.21,-2.81,3.34,10.29,11.2,11.69
-10.4,-2.82,3.35,14.28,15.12,15.54
-10.77,-2.88,3.44,17.36,17.36,18.41
-11,-3.01,3.52,20.02,20.02,20.93
-10.9,-2.69,3.47,21.91,21.91,22.12
-10.68,-2.11,3.47,21.7,21.21,21.21
-10.56,-1.54,3.41,19.39,19.04,19.04
-10.61,-1.45,3.37,17.36,17.36,17.22
-10.74,-1.43,3.32,18.55,18.55,18.83
-10.72,-1.21,3.29,21.35,21.35,21.35
-10.6,-0.87,3.23,23.45,23.45,23.45
-10.54,-0.66,3.18,26.25,26.25,26.25
-10.72,-0.56,3.18,30.87,30.87,30.87
-10.75,-0.22,3.19,32.2,32.2,32.48
-10.46,0.33,3.07,32.48,32.48,32.48
-10.45,0.6,3.02,32.41,32.41,32.41
-10.52,0.83,3.06,32.62,32.97,32.9
-10.46,1.23,3.01,33.04,33.04,32.97
-10.33,1.73,2.92,30.8,30.8,30.8
-10.09,2.39,2.87,26.95,26.95,26.95
-9.48,2.95,2.7,24.29,23.73,23.73
-9.28,3.06,2.63,22.68,22.68,22.75
-9.19,3.16,2.59,23.94,23.94,23.94
-9.09,3.46,2.57,25.69,25.69,25.69
-8.57,3.9,2.58,24.78,24.78,24.78
-7.67,4.52,2.43,21.84,21.84,21.84
-6.94,5.07,2.33,18.34,16.87,16.87
-6.37,5.28,2.37,13.44,13.44,12.39
-6.6,4.96,2.51,11.69,11.69,11.83
-6.36,4.81,2.48,15.96,16.59,16.59
-5.76,5.29,2.57,21.63,21.63,21.98
-5.21,5.94,2.5,22.12,22.12,22.05
-4.18,6.35,2.37,22.47,22.54,22.61
-3.77,6.72,2.36,22.33,22.12,22.12
-3.51,6.73,2.33,22.19,22.4,22.4
-3.07,6.87,2.27,23.38,23.31,23.31
-2.37,7.44,2.29,21,20.16,20.16
-1.77,7.98,2.17,11.97,11.97,10.99
-1.44,8,2.18,4.83,4.83,3.99
-1.13,7.6,2.09,-0.07,-0.07,-0.14
-0.53,7.37,1.89,0.56,0.56,0.56
0,7.42,1.86,1.05,0.98,0.98
0.28,7.93,2.14,-1.47,-1.47,-1.75
0.45,8.25,2.3,-4.48,-4.48,-4.9
0.45,8.36,2.31,-5.95,-5.95,-5.95
0.41,8.56,2.28,-5.74,-5.88,-5.88
0.66,9.01,2.32,-7.63,-7.63,-8.33
0.73,8.83,2.2,-8.96,-8.61,-8.61
0.52,8.47,2.24,-4.83,-4.83,-3.99
0.47,8.32,2.31,2.45,2.45,3.01
0.67,8.65,2.34,2.45,2.45,2.45
0.82,9.16,2.28,-1.75,-1.75,-3.29
0.62,8.73,2.14,-6.23,-6.23,-6.23
0.22,8.21,2.07,-3.64,-3.64,-3.64
-0.17,8.41,2.28,-3.5,-3.64,-3.64
-0.31,8.72,2.39,-6.09,-7.49,-7.49
-0.54,8.67,2.48,-9.24,-9.31,-9.73
-0.8,8.62,2.6,-9.52,-9.38,-9.38
-1.15,8.95,2.56,-10.29,-10.64,-10.64
-1.41,8.97,2.47,-13.16,-13.3,-13.3
-1.62,8.69,2.43,-13.37,-12.74,-12.74
-1.84,8.43,2.55,-11.2,-10.78,-10.15
-1.96,8.54,2.67,-9.38,-9.59,-9.59
-2.82,8.44,2.92,-15.89,-15.61,-15.61
-3.01,8.41,2.98,-14.35,-14.35,-14.28
-3.36,8.52,3.08,-14.77,-14.77,-14.91
-3.59,8.24,3.03,-14.7,-14.7,-14.35
-3.31,8.01,3.02,-12.04,-12.04,-12.04
-3.24,8.14,3.07,-10.99,-11.13,-11.13
-3.65,8.31,3.19,-13.86,-13.86,-13.86
-4,7.96,3.3,-17.22,-17.15,-17.15
-4.01,7.37,3.18,-14.98,-14.49,-14.49
-3.76,7.51,3.11,-11.55,-11.55,-11.69
-3.9,7.71,3.09,-13.51,-14.91,-15.47
-4.75,7.28,3.25,-20.02,-20.02,-20.02
-5.26,6.46,3.37,-18.69,-16.31,-16.31
-6.28,6.67,3.41,-6.72,-6.72,-6.72
-6.25,6.97,3.33,-8.33,-8.54,-8.54
-6.16,6.86,3.26,-8.47,-8.47,-8.19
-6.2,6.66,3.22,-7.14,-7.14,-7.14
-6.51,6.79,3.3,-7.91,-9.31,-9.31
-6.95,6.62,3.17,-13.3,-13.3,-13.3
-6.75,6.45,3.05,-16.31,-16.31,-16.31
-6.3,6.27,3.11,-17.64,-18.2,-18.2
-6.79,5.9,3.31,-20.93,-20.93,-20.93
-7.58,5.1,3.31,-20.58,-20.58,-20.58
-7.4,4.9,3.36,-16.8,-16.8,-16.8
-6.72,5.39,3.47,-15.89,-15.89,-16.1
-6.96,5.04,3.57,-18.13,-18.13,-18.2
-7.76,4.4,3.53,-14.56,-14.56,-14.56
-8.08,3.9,3.46,-7.49,-7.49,-7.49
-7.53,4.33,3.36,-2.1,-2.1,-2.1
-7.37,4.75,3.31,-3.78,-3.78,-3.78
-7.86,4.58,3.35,-5.67,-6.16,-6.16
-8.54,3.91,3.35,-5.53,-5.04,-5.04
-8.65,3.65,3.37,-4.62,-4.62,-4.69
-8.54,3.9,3.11,-12.32,-12.32,-12.95
-8.62,3.49,3.13,-15.33,-15.61,-15.96
-8.95,2.83,3.12,-15.75,-15.75,-15.54
-9.13,2.35,3.1,-14.63,-14.63,-14.63
-8.83,2.52,3.07,-14.84,-15.33,-15.33
-8.53,2.65,3.13,-17.43,-17.43,-18.27
-8.79,1.65,3.31,-18.76,-18.76,-18.76
-9.46,0.8,3.38,-14.7,-14.7,-14.7
-9.44,0.88,3.33,-9.03,-8.61,-8.61
-9.35,1.36,3.31,-8.75,-9.1,-9.38
-9.32,0.7,3.27,-6.16,-6.16,-5.81
-9.15,0.94,3.23,-6.23,-6.23,-6.51
-9.37,0.91,3.17,-8.47,-8.47,-8.61
-9.75,0.46,3.06,-8.89,-8.89,-8.89
-10.36,-0.12,3.06,-6.37,-6.37,-6.37
-10.45,-0.37,3,-7.42,-7.42,-7.42
-10.36,-0.72,2.94,-6.86,-6.86,-6.72
-10.08,-0.34,3.09,-8.82,-9.38,-9.38
-10,-0.4,3.21,-17.29,-17.29,-17.92
-10.04,-0.93,3.23,-20.79,-21.63,-21.91
-9.85,-1.21,3.28,-22.89,-23.17,-23.45
-9.74,-1.6,3.35,-23.8,-23.8,-23.8
-9.44,-1.89,3.38,-23.31,-23.17,-23.17
-9.12,-1.82,3.34,-23.45,-23.59,-23.59
-8.83,-1.85,3.3,-22.47,-22.12,-22.12
-8.97,-2.11,3.34,-19.74,-19.74,-19.39
-9.1,-2.76,3.43,-16.38,-15.68,-15.68
-9.31,-3.19,3.37,-8.75,-8.75,-8.75
-9.19,-3.05,3.42,-4.9,-4.9,-4.48
-9,-2.52,3.52,-6.44,-6.44,-6.44
-9.24,-2.61,3.56,-10.64,-10.64,-10.64
-9.86,-3.36,3.58,-11.13,-10.92,-10.92
-10.14,-3.92,3.6,-6.37,-6.37,-5.81
-9.98,-3.65,3.63,-3.29,-3.29,-3.29
-9.69,-3.1,3.73,-4.34,-4.34,-4.55
-9.81,-3.09,3.72,-5.18,-5.18,-5.18
-9.88,-3.31,3.68,-2.59,-2.59,-2.59
-9.69,-3.07,3.68,1.05,1.05,1.05
-9.62,-2.67,3.64,1.26,1.26,1.19
-9.84,-2.9,3.63,1.96,2.24,2.24
-10.05,-3.24,3.6,5.53,5.88,5.88
-10.04,-3.13,3.61,8.54,9.03,9.17
-10.15,-2.79,3.59,9.59,9.59,9.38
-10.68,-2.98,3.7,10.15,10.15,10.15
-10.89,-3.21,3.77,12.95,13.72,13.72
-10.95,-3.02,3.67,16.59,16.59,17.36
-11.27,-2.77,3.74,18.9,18.9,19.11
-11.3,-2.77,3.69,22.26,22.26,22.26
-11.1,-2.41,3.66,24.08,24.43,24.43
-10.86,-1.76,3.63,24.22,24.22,23.94
-10.89,-1.54,3.62,22.26,22.26,22.26
-11.07,-1.51,3.55,21.91,22.19,22.19
-11.22,-1.5,3.46,24.29,24.29,24.29
-11.17,-1.22,3.42,26.25,26.67,26.67
-11.03,-0.76,3.33,28.28,28.28,28.42
-11.18,-0.54,3.38,28.63,28.63,28.56
-11.18,-0.39,3.35,29.33,29.33,29.33
-11.35,-0.17,3.31,30.38,30.38,30.45
-11.06,0.38,3.21,30.1,30.1,30.1
-9.96,1.92,2.93,20.09,20.09,20.3
-10.06,1.75,2.94,22.47,23.03,23.38
-9.76,2.29,2.94,24.64,24.64,24.64
-9.02,2.98,2.82,23.52,22.89,22.75
-8.09,3.56,2.72,21.14,21.14,19.81
-7.58,3.91,2.89,17.01,17.01,17.01
-7.67,3.67,2.94,17.29,18.2,18.2
-7.46,3.89,2.94,22.26,22.26,22.68
-6.66,4.66,2.88,24.5,24.43,24.43
-5.84,5.42,2.76,22.96,22.96,22.75
-5.33,5.85,2.83,21.21,20.72,20.58
-5.54,5.82,2.99,21.63,21.63,21.63
-5.7,5.78,2.95,25.76,25.76,25.76
-4.96,6.35,2.8,26.18,25.69,25.69
-3.52,7.19,2.49,21.91,21.91,21.91
-2.6,7.76,2.48,11.97,11.97,11.97
-2.36,7.43,2.31,7.35,7.35,7.35
-2.03,6.98,2.2,7.49,7.49,7.49
-1.43,7.17,2.24,6.51,6.51,6.51
-0.65,7.38,2.2,4.2,4.2,4.2
-0.19,7.5,2.23,2.31,2.31,2.31
0.29,7.13,2.29,2.94,3.57,3.57
0.84,7.12,2.33,4.97,4.97,4.97
1.38,7.86,2.47,0.07,0.07,0.07
1.62,7.87,2.49,-4.55,-4.55,-4.55
1.85,7.49,2.52,-3.85,-2.8,-2.8
2.05,7.37,2.48,2.03,2.03,2.8
2.3,7.92,2.63,4.13,4.13,4.13
2.34,8.51,2.65,2.17,2.17,2.17
2.34,8.33,2.57,2.03,2.03,2.17
1.85,8.77,2.58,2.87,2.52,2.52
1.42,8.76,2.52,1.96,1.96,2.17
0.97,8.46,2.54,3.5,3.5,3.5
0.75,8.45,2.51,6.44,6.44,6.44
0.72,8.7,2.49,6.16,6.16,5.95
0.35,8.91,2.44,1.4,1.4,1.4
-0.01,8.72,2.45,-0.35,-0.49,-0.49
-0.52,8.37,2.53,0.42,0.42,0.91
-0.61,8.54,2.59,1.47,1.47,1.33
-0.6,9,2.5,-2.1,-2.1,-2.1
-0.77,9.01,2.54,-6.37,-6.51,-6.51
-0.97,8.49,2.57,-5.81,-5.32,-5.32
-2.06,8.84,2.61,-8.89,-9.24,-9.31
-2.2,8.49,2.56,-8.96,-8.68,-8.68
-2.42,8.94,2.7,-10.71,-10.71,-11.69
-4.08,8.88,2.56,-27.86,-27.86,-27.93
-4.16,8.05,2.53,-23.73,-23.73,-23.73
-3.72,7.94,2.7,-19.95,-19.95,-19.95
-3.6,8.03,3.04,-19.46,-19.46,-19.46
-3.25,7.74,3.46,-18.55,-18.13,-18.13
-2.84,7.27,3.59,-15.05,-14.63,-14.63
-2.74,7.37,3.55,-13.09,-13.09,-13.09
-3.36,7.46,3.45,-13.3,-13.16,-13.16
-4.29,7.1,3.43,-12.67,-11.41,-11.41
-4.89,6.66,3.37,-8.33,-6.16,-6.16
-5.46,6.72,3.35,-3.5,-3.08,-2.66
-6.37,6.95,3.35,-2.66,-2.66,-2.87
-6.58,6.65,3.18,-2.24,-2.24,-1.96
-6.23,6.58,3.04,0.07,0.07,0.07
-6.12,6.63,3.1,0.21,0.21,0.21
-6.45,6.7,3.12,-1.26,-1.26,-1.26
-6.8,6.47,3.13,-2.8,-2.8,-2.8
-7.05,6.16,3,-2.59,-2.52,-2.52
-6.92,6.58,2.91,-5.18,-5.88,-5.88
-7.08,6.39,2.8,-11.13,-11.13,-11.34
-7.72,5.43,2.84,-10.64,-10.64,-10.29
-7.81,5.26,2.9,-7.56,-7.42,-7.42
-8.05,5.57,2.91,-9.87,-9.87,-11.27
-7.98,5.37,2.76,-14.91,-14.91,-14.91
-7.84,4.88,2.73,-13.37,-13.02,-13.02
-7.86,4.86,2.86,-11.83,-12.18,-12.18
-7.84,4.94,3.01,-14.77,-15.4,-15.4
-7.85,4.64,2.86,-18.9,-18.9,-19.18
-8,4.14,2.81,-19.46,-19.46,-19.18
-8.02,3.72,2.9,-16.94,-16.94,-16.94
-8.26,3.47,2.87,-15.12,-15.12,-15.12
-8.51,3.35,2.73,-14.21,-14.21,-14.21
-8.54,3.36,2.86,-14.91,-14.91,-14.91
-8.67,3.29,3.06,-17.29,-17.99,-17.99
-9.48,2.01,3.16,-16.03,-16.03,-16.03
-8.97,2.48,3.26,-16.87,-18.13,-18.13
-8.48,2.95,3.52,-24.57,-24.57,-26.88
-8.56,2.09,3.5,-30.8,-30.8,-30.8
-8.87,0.57,3.37,-24.29,-24.29,-24.29
-9.02,0.51,3.36,-16.17,-16.17,-16.17
-8.92,0.84,3.36,-13.51,-13.51,-13.51
-9.38,0.36,3.48,-11.48,-11.48,-11.13
-9.8,-0.25,3.58,-9.1,-9.1,-9.1
-10.19,-0.39,3.45,-5.04,-5.04,-5.04
-10.11,0.18,3.41,-6.23,-6.79,-6.79
-9.92,0.49,3.47,-12.81,-14.63,-15.68
-10.09,-0.19,3.43,-19.46,-19.46,-20.51
-10.43,-1.3,3.2,-18.2,-18.2,-18.2
-10.31,-1.15,3.11,-12.95,-12.95,-12.95
-10.22,-0.76,3.24,-13.86,-13.86,-13.86
-9.99,-1.27,3.27,-15.12,-15.12,-15.12
-9.98,-1.67,3.25,-13.51,-13.51,-13.51
-9.81,-1.51,3.57,-20.3,-20.93,-20.93
-8.87,-1.9,3.49,-25.55,-25.55,-25.55
-8.66,-2.07,3.53,-27.44,-27.44,-27.44
-8.95,-3,3.56,-24.36,-22.54,-22.54
-9.09,-3.72,3.46,-15.26,-15.26,-15.26
-9.23,-2.82,3.68,-5.32,-5.32,-5.32
-9.96,-3.22,3.77,-5.67,-5.67,-5.67
-10.18,-3.69,3.79,-2.45,-1.89,-1.89
-10.15,-3.39,3.79,-0.42,-0.14,-0.14
-10.17,-2.84,3.83,-0.91,-1.12,-1.12
-10.23,-2.9,3.94,-1.4,-1.33,-1.33
-10.36,-3.07,4.02,0.28,0.28,0.7
-10.43,-3.02,4.1,3.08,3.08,3.08
-10.44,-2.99,4.13,5.74,5.74,5.74
-10.33,-2.9,4.13,8.4,8.4,8.4
-10.42,-2.92,4.11,11.06,11.06,11.06
-10.62,-3.13,4.13,15.75,16.31,16.31
-10.77,-3.02,4.19,19.04,20.37,20.37
-10.71,-2.71,4.17,22.12,22.4,23.17
-10.59,-2.55,4.01,25.27,25.27,25.76
-10.55,-2.34,3.99,30.03,30.03,30.24
-10.57,-2.15,3.98,31.99,32.48,32.9
-10.72,-1.58,3.81,35.42,35.42,35.56
-10.72,-1.12,3.79,35.77,35.77,53.69
-10.89,-0.75,3.78,34.72,34.72,34.72
-11.11,-0.56,3.72,33.88,33.88,33.88
-11.45,0.42,3.49,40.95,40.25,40.25
-11.3,0.99,3.44,37.1,37.1,36.61
-11.57,0.95,3.41,35.91,35.91,35.91
-11.83,0.81,3.36,38.78,38.78,38.78
-11.32,1.74,3.2,41.37,41.37,41.16
-10.45,3.02,2.96,34.65,34.65,34.65
-9.44,4.01,2.75,25.97,25.97,25.97
-9.22,3.64,2.56,20.02,20.02,20.02
-9.16,3.34,2.42,20.86,20.86,20.86
-8.43,3.91,2.37,19.88,19.39,19.39
-7.2,4.6,2.39,15.19,14.35,14.35
-6.38,4.66,2.3,8.54,8.54,8.54
-6.05,4.38,2.34,7.21,7.21,7.56
-5.84,4.08,2.29,11.48,11.48,11.48
-5.39,4.32,2.41,19.81,20.51,20.51
-4.67,5.11,2.52,23.45,23.59,23.59
-3.6,5.82,2.47,22.26,22.26,21.77
-2.76,6.37,2.52,18.41,17.92,17.92
-2.6,6.32,2.51,16.17,16.17,16.24
-2.34,6.14,2.57,20.86,20.86,21.56
-1.95,6.52,2.62,24.57,24.57,24.57
-1.34,7.43,2.65,24.08,24.08,24.08
-0.93,8.13,2.74,17.64,17.64,17.64
-0.96,8.08,2.74,14.7,14.63,14.63
-0.7,7.7,2.4,15.89,16.1,16.1
-0.16,8.03,2.32,15.68,15.68,15.4
0.46,8.47,2.33,11.69,11.69,11.13
0.89,8.46,2.31,8.19,8.19,7.84
1.01,7.97,2.19,7.42,7.42,7.42
1.06,7.86,2.22,7.07,7.07,6.65
1.46,8.14,2.16,4.27,4.27,4.27
2.07,8.48,2.05,-0.21,-0.21,-0.7
2.33,8.41,1.92,-3.78,-3.78,-4.2
2.19,8.03,1.81,-4.06,-3.43,-3.43
2.12,7.79,1.78,-0.56,-0.56,0.28
2.36,8.35,1.86,1.75,1.75,1.75
2.19,8.82,2.04,-0.91,-1.19,-1.19
1.86,8.87,2.11,-2.52,-2.59,-2.59
1.49,9,2.22,-3.92,-3.92,-3.92
0.91,9.12,2.19,-5.32,-5.32,-5.32
0.32,8.96,2.19,-3.99,-3.99,-3.99
0.05,8.92,2.2,-1.12,-1.12,-1.12
0.05,9.03,2.18,-0.14,-0.07,-0.07
0.14,9.06,2.14,-1.12,-1.33,-1.33
0.07,8.92,2.13,-3.22,-3.22,-3.22
-0.27,8.55,2.23,-3.71,-3.71,-3.64
-0.55,8.68,2.38,-4.48,-4.48,-4.69
-0.93,8.93,2.51,-9.52,-9.52,-9.52
-1.3,8.92,2.45,-14.07,-14.07,-14.07
-1.43,8.66,2.34,-15.96,-15.96,-15.96
-1.48,8.64,2.38,-16.45,-16.45,-16.45
-2,8.59,2.48,-17.15,-17.15,-17.15
-2.64,8.48,2.54,-18.27,-18.27,-18.41
-2.74,8.46,2.61,-19.11,-19.11,-19.32
-2.51,8.35,2.64,-19.32,-19.32,-19.32
-2.44,8.51,2.75,-21.28,-21.28,-21.77
-2.9,7.37,2.82,-24.15,-24.15,-24.85
-3.53,7.81,2.82,-23.52,-22.96,-22.96
-3.52,7.69,2.95,-17.64,-17.64,-17.29
-3.09,8.15,3.13,-18.2,-18.2,-18.2
-3.32,7.95,3.15,-22.82,-22.96,-22.96
-4.37,7.19,3.24,-22.68,-22.12,-22.12
-4.74,6.94,3.36,-17.43,-16.1,-15.61
-4.87,7.18,3.43,-13.44,-13.44,-12.6
-5.69,7.11,3.33,-10.43,-10.43,-10.43
-6.26,6.73,3.28,-3.57,-3.57,-3.57
-5.81,6.82,3.27,1.19,1.19,1.19
-5.65,7.45,3.32,-1.19,-1.19,-1.19
-6.39,7.34,3.22,-8.4,-8.4,-8.4
-6.82,6.78,3.18,-10.64,-10.64,-10.64
-6.37,6.7,3.12,-13.23,-13.58,-13.58
-6.79,6.36,3.1,-15.96,-16.1,-16.1
-6.99,5.96,3.07,-16.1,-16.1,-15.96
-6.95,5.81,3.12,-16.66,-16.66,-17.36
-6.75,5.18,3.19,-16.59,-16.59,-16.59
-6.85,4.81,3.26,-12.95,-12.95,-12.95
-6.87,5.06,3.31,-11.69,-11.69,-11.69
-7.19,4.73,3.35,-12.32,-12.32,-12.32
-7.21,4.35,3.3,-10.08,-9.66,-9.66
-7.06,4.64,3.34,-8.4,-8.61,-8.61
-7.31,4.95,3.31,-14.49,-14.49,-15.19
-8.33,4.08,3.24,-17.36,-17.36,-17.22
-9.08,3.15,3.15,-12.25,-10.15,-10.15
-9.4,2.88,3.28,-4.55,-4.55,-3.29
-9.6,3.14,3.38,-1.54,-1.54,-1.05
-9.7,3.38,3.23,-1.4,-1.4,-1.4
-8.97,3.81,3.07,-5.67,-6.65,-6.65
-8.47,4,3.17,-14.49,-14.49,-14.49
-8.98,2.88,3.3,-20.58,-21.14,-21.07
-9.99,1.6,3.38,-17.99,-17.99,-17.99
-10.02,1.51,3.35,-12.46,-11.9,-11.9
-9.42,2.34,3.35,-12.39,-12.95,-12.95
-8.98,2.03,3.29,-16.17,-16.17,-16.45
-8.61,1.41,3.27,-16.31,-16.31,-16.31
-9.04,0.83,3.4,-13.37,-13.37,-13.37
-9.4,0.71,3.57,-13.86,-13.86,-13.86
-9.55,0.59,3.62,-16.66,-17.08,-17.08
-9.61,0.21,3.49,-17.43,-17.43,-17.43
-9.74,-0.11,3.49,-14.42,-14.42,-14.42
-9.69,-0.08,3.57,-11.76,-11.76,-11.76
-9.84,-0.05,3.49,-10.15,-9.8,-9.8
-10,-0.39,3.31,-7.35,-5.25,-5.25
-9.88,-0.4,3.19,-1.54,-0.07,-0.07
-9.56,0.1,3.18,0.28,0,-1.26
-9.61,0.17,3.26,-5.11,-5.95,-5.95
-10.16,-0.81,3.21,-9.59,-9.59,-9.59
-10.43,-1.45,3.2,-8.05,-8.05,-8.05
-10.18,-1.22,3.34,-10.5,-10.5,-10.5
-9.9,-0.83,3.36,-16.38,-16.38,-18.69
-9.95,-1.08,3.39,-23.94,-23.94,-23.94
-10.07,-2.29,3.39,-24.29,-24.29,-24.29
-10.04,-2.6,3.47,-19.32,-19.32,-19.32
-9.72,-2.29,3.57,-17.78,-17.78,-17.78
-9.77,-2.04,3.66,-17.78,-17.78,-17.5
-9.99,-2.49,3.75,-15.26,-15.26,-12.81
-9.94,-2.67,3.77,-7.91,-7.91,-6.86
-9.48,-1.75,3.73,-1.89,-1.89,-1.89
-9.22,-1.47,3.82,-3.22,-3.92,-4.27
-9.75,-1.89,3.9,-4.48,-4.48,-3.43
-10.18,-2.11,3.92,3.22,3.22,3.29
-10.22,-1.68,3.87,2.52,2.52,2.52
-10.49,-2.08,3.9,3.78,3.78,3.78
-7.4,3.94,-0.11,-1.26,-1.75,-1.75
-8.14,3.59,-0.25,-3.5,-3.57,-3.57
-8.26,3.43,-0.27,-3.85,-3.85,-3.85
-7.68,3.83,-0.21,-7.91,-7.91,-7.91
-7,4.21,-0.15,-18.34,-18.34,-18.34
-7.18,4.11,-0.3,-24.43,-25.9,-25.9
-7.9,3.66,-0.5,-28.77,-28.91,-28.91
-8.48,3.25,-0.56,-28,-28,-27.65
-8.8,3.13,-0.16,-26.11,-26.11,-26.11
-9.07,3.14,0.08,-23.52,-23.52,-22.96
-9.37,3.02,0.06,-20.02,-19.25,-19.25
-9.43,2.75,0.04,-9.8,-8.61,-8.61
-9.55,2.57,0.02,0.49,1.82,1.82
-9.49,2.68,0.03,10.15,11.13,11.13
-9.11,3.09,-0.01,16.24,16.52,16.52
-9,3.35,-0.03,18.55,18.76,18.76
-9.5,3.15,-0.03,19.67,20.93,20.93
-10.05,2.36,-0.18,26.11,26.11,26.11
-9.75,2.14,-0.3,33.32,33.67,33.67
-9.07,2.58,-0.18,33.95,32.34,32.34
-8.63,3.21,0.32,27.51,25.06,25.06
-8.69,3.19,0.55,15.54,14.63,14.63
-9.01,2.74,0.54,10.01,10.01,9.31
-9.03,2.44,0.66,6.37,5.95,5.95
-8.61,2.33,0.91,2.94,2.94,2.59
-8.58,1.87,0.71,2.31,2.31,2.31
-8.91,1.34,0.46,7.21,7.21,8.26
-8.83,1.4,0.72,16.45,16.45,16.45
-8.37,2.05,1.03,19.32,19.04,19.04
-7.81,2.81,1.07,15.19,14.07,14.07
-7.6,3.44,1.42,2.8,0.77,0.77
-7.7,3.46,1.58,-15.68,-15.68,-17.15
-8.31,2.95,1.58,-25.34,-25.34,-26.53
-8.77,2.53,1.41,-32.83,-32.83,-32.83
-8.7,2.01,1.41,-33.74,-33.67,-33.67
-8.73,1.54,1.39,-33.11,-32.9,-32.9
-8.96,0.93,1.41,-31.85,-31.85,-31.36
-9.84,-0.29,1.2,-27.16,-27.16,-27.16
-10.84,-1.4,1.02,-21.42,-20.44,-18.55
-11.38,-2.1,1.02,-14.14,-13.44,-12.18
-11.44,-2.11,1.19,-10.57,-10.57,-10.71
-11.16,-1.78,1.22,-11.97,-11.97,-12.04
-10.84,-1.49,1.17,-13.3,-13.3,-13.3
-10.83,-1.23,1.12,-12.6,-12.6,-12.6
-10.95,-0.89,1.08,-12.39,-12.6,-12.6
-10.79,-0.46,1.03,-14.49,-14.49,-15.61
-10.54,-0.37,0.74,-25.76,-25.76,-26.74
-10.7,-0.79,0.66,-28.07,-28.07,-28.07
-11.11,-1.55,0.43,-23.8,-23.8,-23.8
-11.11,-2.11,0.3,-14.77,-14.77,-14.77
-10.53,-2.15,0.22,-3.57,-3.57,-3.57
-9.84,-1.83,0.05,4.41,4.41,4.41
-9.4,-1.62,-0.03,6.58,6.93,6.93
-9.28,-1.88,-0.06,7.14,7.14,6.79
-9.71,-2.24,-0.04,4.9,4.41,4.41
-10.18,-2.52,0.02,0.28,-0.21,-1.4
-10.67,-2.61,0.25,-4.9,-5.39,-5.39
-10.97,-2.5,0.33,-6.51,-6.51,-6.51
-10.89,-2.17,0.4,-5.32,-5.32,-5.04
-10.73,-1.8,0.52,-3.36,-3.36,-3.36
-10.61,-1.64,0.69,-1.26,-0.91,-0.91
-10.48,-1.7,0.76,0.49,0.49,0.49
-10.5,-1.81,0.65,3.36,3.36,3.36
-10.32,-1.88,0.58,5.74,5.74,5.74
-10.1,-1.99,0.49,8.47,8.47,8.47
-9.96,-2,0.48,10.99,10.99,10.99
-9.82,-2.03,0.47,11.48,11.55,11.55
-9.63,-1.94,0.48,11.83,11.83,11.83
-9.59,-1.83,0.46,10.99,10.5,10.5
-9.66,-1.69,0.44,8.68,8.68,8.68
-9.74,-1.51,0.47,6.51,6.3,6.3
-9.66,-1.32,0.51,4.83,3.92,3.92
-9.59,-1.03,0.62,1.68,1.68,1.68
-9.55,-1.02,0.71,-0.98,-0.98,-1.19
-9.49,-1.18,0.75,-1.19,-1.19,-1.19
-9.31,-1.27,0.87,-0.28,-0.21,-0.21
-9.41,-1.66,0.72,6.16,6.16,6.16
-9.61,-1.68,0.77,7.84,7.84,7.84
-9.56,-1.39,0.81,7.49,7.21,7.21
-9.43,-1.22,0.87,4.76,4.76,4.76
-9.31,-1.12,1,-0.35,-0.35,-0.35
-9.27,-1.23,1,-2.1,-2.31,-2.31
-9.27,-1.35,0.91,-1.61,-1.61,-1.61
-9.33,-1.37,0.87,0.42,0.42,0.42
-9.34,-1.29,0.89,2.31,2.31,2.31
-9.27,-1.32,0.83,3.22,3.22,3.43
-9.22,-1.26,0.79,4.55,4.55,4.55
-9.32,-1.38,0.72,5.32,5.53,5.53
-9.52,-1.54,0.69,6.16,6.23,6.23
-9.71,-1.57,0.6,6.37,6.37,6.23
-10.06,-1.47,0.58,4.06,3.85,3.85
-10.09,-1.37,0.52,2.24,1.96,1.96
-10.12,-1.2,0.56,0.14,-0.28,-0.28
-10.2,-1.16,0.65,-2.38,-2.66,-2.66
-10.25,-1.18,0.72,-5.32,-5.32,-5.53
-10.27,-1.29,0.66,-6.02,-6.09,-6.09
-10.16,-1.23,0.65,-6.3,-6.3,-6.51
-10.21,-1.16,0.76,-7.35,-7.35,-7.35
-10.32,-1.42,0.66,-7,-7,-7
-10.28,-1.57,0.6,-4.9,-4.9,-4.9
-10.1,-1.53,0.64,-2.17,-2.17,-2.17
-9.84,-1.38,0.69,-1.26,-1.26,-1.26
-9.66,-1.3,0.69,-1.12,-1.12,-1.12
-9.52,-1.27,0.67,-1.75,-1.75,-1.75
-9.47,-1.35,0.63,-1.82,-1.68,-1.68
-9.38,-1.35,0.68,-1.89,-1.96,-2.03
-9.35,-1.45,0.64,-2.38,-2.52,-2.52
-9.38,-1.58,0.61,-2.73,-2.73,-2.59
-9.55,-1.73,0.59,-2.17,-2.17,-2.17
-9.67,-1.81,0.66,-2.1,-1.96,-1.96
-9.65,-1.77,0.69,-1.89,-1.89,-1.89
-9.53,-1.67,0.71,-1.75,-1.75,-1.75
-9.45,-1.56,0.74,-1.68,-1.61,-1.61
-9.49,-1.48,0.76,-1.4,-1.4,-1.4
-9.56,-1.47,0.82,-1.33,-1.33,-1.33
-9.61,-1.44,0.84,-0.77,-0.77,-0.77
-9.68,-1.4,0.85,-0.14,-0.14,-0.14
-9.94,-1.43,0.82,0.49,0.63,0.63
-10.08,-1.52,0.82,1.33,1.75,1.75
-10.25,-1.47,0.83,2.87,3.01,3.01
-10.39,-1.3,0.8,3.43,3.5,3.5
-10.57,-1.16,0.78,3.85,3.92,3.92
-10.62,-1.06,0.76,4.55,4.55,4.76
-10.67,-0.93,0.74,5.04,4.97,4.97
-10.65,-0.63,0.78,4.48,4.48,4.13
-10.65,-0.53,0.84,3.5,3.5,3.36
-10.84,-0.62,0.76,3.64,3.92,4.2
-10.94,-0.65,0.71,5.32,5.32,6.02
-11.02,-0.53,0.63,7.14,7.14,7.49
-11.05,-0.33,0.65,8.82,8.82,8.82
-11.06,-0.11,0.64,8.89,8.89,8.89
-11.02,0.18,0.63,8.33,8.33,8.33
-11.29,0.36,0.71,7.14,7.14,7.14
-11.51,0.44,0.77,6.79,7,7
-11.5,0.6,0.72,7.7,7.7,7.98
-11.4,0.95,0.67,8.33,8.33,8.33
-11.27,1.42,0.72,6.65,6.65,6.65
-11.36,1.54,0.62,4.41,4.41,4.2
-11.43,1.74,0.59,1.05,1.05,1.05
-11.31,1.95,0.49,-0.77,-0.98,-0.98
-11.22,2.17,0.38,-3.08,-3.78,-4.13
-10.95,2.51,0.32,-6.37,-6.65,-6.65
-10.6,2.73,0.3,-9.03,-9.03,-9.03
-10.27,3,0.27,-10.85,-10.85,-10.85
-9.83,3.26,0.35,-11.55,-11.55,-11.55
-9.55,3.49,0.4,-11.83,-11.83,-11.97
-9.52,3.7,0.5,-12.46,-12.46,-12.39
-9.32,3.85,0.6,-12.11,-12.11,-12.11
-9.15,3.99,0.56,-11.55,-11.55,-11.55
-8.75,4.37,0.76,-10.5,-10.5,-10.5
-8.35,4.62,0.9,-10.22,-10.22,-10.22
-8.06,4.91,0.93,-10.5,-10.5,-10.5
-7.54,5.18,0.97,-9.94,-9.59,-9.59
-6.93,5.36,1.02,-7.56,-7.56,-7.21
-6.56,5.74,1.11,-4.27,-4.27,-4.27
-6.11,6.05,1.22,-2.8,-2.8,-2.8
-5.92,6.43,1.17,-2.52,-2.38,-2.38
-5.61,6.61,1.14,-1.47,-1.47,-1.12
-5.36,6.74,1.12,0.28,0.28,0.28
-5.38,7.08,1.04,2.1,2.1,2.1
-5.16,7.38,1.03,1.82,1.54,1.54
-4.75,7.75,1.03,-0.63,-0.63,-1.68
-4.37,8.04,1.01,-6.58,-6.58,-6.58
-4.24,8.16,1.02,-10.99,-12.53,-12.53
-4.01,8.12,0.92,-14.14,-14.7,-14.7
-3.67,8.17,0.95,-14.91,-14.98,-14.84
-3.42,8.3,0.84,-14.56,-14.56,-14.42
-3.28,8.33,0.86,-13.44,-13.44,-13.44
-3.01,8.5,0.86,-12.32,-12.32,-12.32
-2.5,8.67,1,-12.74,-12.74,-12.74
0.12,8.72,1.3,-22.19,-22.4,-22.4
2.02,7.78,1.79,-3.22,-3.22,-3.22
2.55,7.77,1.93,7.07,7.98,7.98
2.95,7.89,1.98,12.46,14.7,14.7
3.08,8,1.93,17.78,19.39,19.39
3.14,7.98,1.86,21.84,22.33,23.1
3.09,8.05,1.67,24.43,24.64,24.64
3.04,8.35,1.53,23.8,23.8,23.8
3.23,8.58,1.46,19.04,18.41,18.41
3.52,8.74,1.44,13.86,10.5,10.5
3.68,9.07,1.55,4.06,-0.56,-0.56
3.79,9.01,1.57,-11.13,-11.13,-11.13
3.95,8.71,1.57,-21.77,-22.47,-22.47
4.07,8.23,1.6,-25.41,-25.76,-26.39
3.98,7.95,1.55,-27.3,-27.37,-27.37
4.21,8.07,1.53,-26.32,-26.11,-26.11
4.4,8.14,1.61,-24.43,-24.01,-24.01
4.42,8.14,1.51,-21.07,-20.51,-20.51
4.09,8.28,1.43,-18.48,-17.64,-17.64
3.99,8.79,1.64,-17.08,-17.08,-17.15
3.93,8.93,1.78,-17.57,-17.57,-17.43
3.47,8.95,1.87,-16.38,-16.38,-16.38
3.04,9,2.04,-14.35,-13.93,-13.16
2.83,8.98,2.23,-11.2,-10.85,-10.85
2.69,9.05,2.42,-7.49,-7.14,-7.14
2.5,9.15,2.55,-5.39,-5.11,-5.11
2.31,9.1,2.6,-3.43,-3.01,-3.01
2.18,9.06,2.54,-1.68,-1.26,-1.26
2.49,9.04,2.48,0.28,0.42,0.42
2.76,9.13,2.4,0.63,0.63,0.63
2.97,9.09,2.4,-0.14,-0.28,-0.28
2.93,9.02,2.43,-1.89,-1.89,-2.03
2.84,8.93,2.39,-2.66,-2.8,-2.8
2.86,8.85,2.36,-3.29,-3.36,-3.36
2.93,8.79,2.34,-3.5,-3.5,-3.29
3.03,8.68,2.31,-2.59,-2.03,-1.82
3.13,8.57,2.29,-0.07,-0.07,-0.07
3.3,8.59,2.24,1.82,1.96,1.96
3.43,8.6,2.29,2.94,2.94,3.08
3.48,8.52,2.23,4.06,4.06,4.27
3.59,8.42,2.22,5.18,5.18,5.32
3.6,8.26,2.16,5.95,5.95,6.02
3.46,8.27,2.17,6.72,6.72,6.72
3.28,8.21,2.15,6.72,6.72,6.93
3.29,8.16,2.06,7.35,7.35,7.35
3.13,8.19,2.05,8.19,8.19,8.19
2.89,8.12,2.01,9.03,9.1,9.1
2.34,8.2,1.84,10.43,10.43,10.43
1.98,8.57,1.85,9.17,9.17,8.75
1.6,8.92,1.81,5.81,5.81,5.81
1.17,9.02,1.76,0.84,0.84,0.84
0.5,8.88,1.73,-1.47,-1.47,-1.47
-0.22,8.89,1.74,-2.1,-2.1,-2.1
-0.86,9,1.68,-2.31,-2.31,-2.38
-1.12,9.35,1.79,-3.57,-3.78,-3.78
-1.26,9.53,1.84,-5.74,-5.74,-6.16
-1.23,9.54,1.96,-9.87,-9.87,-9.87
-1.29,9.35,2.03,-11.76,-11.76,-11.9
-1.29,9.18,2.03,-11.76,-11.76,-11.62
-1.5,8.98,2.12,-10.78,-10.36,-10.36
-1.85,8.7,2.34,-3.36,-3.36,-3.01
-2.16,8.54,2.33,-1.82,-1.26,-1.05
-2.3,8.5,2.43,-0.35,-0.35,0.14
-2.62,8.36,2.38,0.63,0.63,0.7
-2.68,8.17,2.33,2.66,2.66,2.94
-3.35,7.84,2.26,4.48,4.48,4.69
-3.99,7.81,2.2,5.53,5.53,5.53
-4.29,7.77,2.19,5.32,5.32,5.32
-4.41,7.58,2.03,4.34,4.34,4.34
-4.56,7.37,1.95,4.97,4.97,4.97
-4.69,7.2,1.89,6.09,6.09,6.09
-5.47,6.94,1.81,6.23,6.23,6.23
-6.23,6.72,1.69,8.05,8.05,8.05
-6.6,6.58,1.65,11.2,11.2,11.2
-6.59,7.05,1.61,12.46,12.46,12.46
-6.62,7.42,1.5,9.31,9.31,9.31
-6.94,7.46,1.36,5.18,5.18,5.18
-7.15,7.38,1.34,3.5,3.5,3.5
-7.01,7.5,1.34,2.1,1.33,1.33
-6.66,7.59,1.41,-1.89,-1.89,-1.89
-6.82,7.05,1.45,-5.32,-5.32,-5.32
-7.24,6.27,1.39,-3.85,-4.83,-4.83
-7.61,5.26,1.49,-14.91,-15.19,-15.68
-8.03,4.19,1.61,-14,-14,-14
-7.75,3.97,1.59,-10.92,-10.5,-10.5
-7.92,3.78,1.76,-8.12,-8.12,-8.12
-8.16,3.66,1.7,-7.63,-7.63,-7.63
-8.68,3.3,1.66,-6.79,-6.23,-6.23
-9.1,2.79,1.47,-2.24,-2.24,-2.24
-9.93,3.12,1.54,5.25,5.25,5.25
-10.25,2.66,1.41,3.43,3.43,3.43
-10.68,2.07,1.25,5.67,6.65,6.65
-10.57,2.25,1.38,9.03,9.17,9.17
-10.17,2.72,1.43,7.56,7.56,6.16
-10.27,1.54,1.38,0.63,0.63,0.63
-9.82,0.75,1.38,-2.1,-2.59,-2.59
-9.84,0.33,1.31,-4.41,-4.41,-4.41
-9.7,-0.18,1.32,-1.61,-1.61,-1.54
-9.53,-0.02,1.34,-2.24,-2.24,-2.24
-9.42,-0.11,1.31,-4.76,-4.76,-4.76
-9.34,-0.36,1.3,-5.18,-5.18,-5.18
-9.38,-0.59,1.31,-4.41,-4.41,-4.2
-9.39,-0.87,1.28,-3.71,-3.71,-3.71
-9.42,-1.06,1.33,-4.55,-4.55,-4.76
-9.83,-1.47,1.26,-6.16,-6.16,-6.16
-10.05,-2.03,1.12,-4.48,-3.36,-3.36
-9.92,-2.31,1.04,0.28,1.33,1.33
-9.66,-2.21,1.03,3.78,3.78,4.2
-9.54,-2.25,1.16,3.78,3.78,3.78
-9.51,-2.56,1.2,1.75,1.61,1.61
-9.35,-2.81,1.23,1.05,1.05,1.05
-9.29,-3.25,1.21,1.61,1.61,1.61
-9.07,-3.56,1.38,2.73,2.73,2.73
-8.8,-3.79,1.48,3.92,3.99,3.99
-8.82,-4.02,1.49,4.55,4.62,4.62
-9.44,-4.51,1.53,5.04,5.04,5.32
-10.03,-5.28,1.45,10.99,10.99,11.34
-9.88,-4.88,1.5,12.6,12.25,12.25
-10.16,-4.29,1.6,9.52,9.03,9.03
-10.25,-4.18,1.64,6.65,6.65,6.37
-10.38,-4.22,1.76,4.41,4.41,4.13
-10.32,-4.12,1.69,2.38,2.38,2.38
-10.26,-4.21,1.6,1.89,1.89,1.89
-10.18,-4.55,1.38,3.5,3.5,3.85
-10.19,-4.67,1.31,7.07,7.07,7.56
-10.04,-4.88,1.23,10.29,10.29,10.64
-9.45,-4.3,1.41,8.4,7.28,7.28
-9.27,-4.25,1.53,3.22,3.22,1.89
-9.11,-4.33,1.49,-2.1,-2.1,-2.1
-9.1,-4.58,1.46,-3.64,-3.85,-3.85
-9.12,-4.79,1.48,-3.5,-3.43,-3.43
-9.1,-4.89,1.46,-1.96,-1.75,-1.75
-9.09,-4.95,1.41,-0.28,0.7,0.7
-9.11,-4.94,1.36,2.31,2.73,3.01
-9.21,-4.55,1.37,3.71,3.71,3.43
-9.37,-4.45,1.44,2.87,2.87,2.87
-9.46,-4.34,1.44,2.03,2.03,1.96
-9.5,-4.21,1.47,1.61,1.61,1.26
-9.66,-3.85,1.52,0.63,0.63,0.56
-9.94,-3.74,1.52,-0.35,-0.35,-0.42
-10.06,-3.58,1.52,0.35,0.35,0.56
-10.28,-3.43,1.56,1.05,1.05,1.05
-10.45,-3.12,1.56,0.35,0.21,0.21
-10.49,-2.96,1.56,-0.14,-0.49,-0.49
-10.51,-2.74,1.65,-1.12,-1.75,-1.75
-10.58,-2.59,1.6,-2.59,-2.94,-3.36
-10.58,-2.5,1.58,-4.2,-4.34,-4.34
-10.59,-2.34,1.59,-5.25,-5.32,-5.32
-10.62,-2.28,1.5,-4.55,-4.34,-4.34
-10.57,-2.19,1.4,-1.96,-1.61,-1.61
-10.49,-1.95,1.42,0.91,1.12,1.12
-10.48,-1.53,1.43,2.24,2.66,2.66
-10.48,-1.24,1.4,3.22,3.29,3.5
-10.53,-0.83,1.37,3.57,3.57,3.64
-10.81,-0.54,1.31,2.52,2.52,2.52
-10.85,-0.08,1.28,1.26,1.12,1.12
-10.78,0.23,1.23,-0.35,-0.35,-0.49
-10.69,0.62,1.24,-1.61,-2.31,-2.31
-10.71,1,1.23,-4.34,-4.34,-4.34
-10.77,1.23,1.12,-7.42,-7.42,-7.49
-10.84,1.34,1.07,-7.56,-7.56,-7.56
-10.57,1.76,1.09,-7.56,-7.56,-7.56
-10.23,2.12,1.17,-9.52,-9.52,-9.52
-9.24,2.79,1.3,-14,-13.72,-13.72
-8.92,2.94,1.25,-10.43,-10.43,-9.31
-8.75,3.23,1.33,-5.6,-5.6,-5.6
-8.35,3.74,1.34,0.42,0.42,0.42
-7.78,4.31,1.37,3.08,3.08,3.08
-7.05,5.08,1.4,2.94,2.94,2.94
-6.96,5.46,1.37,0.63,0.35,0.35
-7.02,5.51,1.26,-0.77,-0.77,-0.56
-7.26,5.46,1.21,0.98,0.98,1.12
-7.53,5.49,1.18,4.13,5.11,5.11
-7.14,5.97,1.24,6.79,6.93,6.93
-6.52,6.69,1.27,5.04,3.85,3.85
-5.71,7.22,1.34,-2.38,-2.38,-2.38
-5.14,7.37,1.34,-8.05,-8.05,-8.05
-5,7.17,1.26,-12.95,-13.09,-13.09
-4.91,6.84,1.25,-12.46,-11.9,-11.9
-4.61,6.88,1.31,-8.96,-8.61,-8.61
-4.07,7.18,1.37,-7.49,-7,-7
-3.54,7.46,1.53,-7.21,-7.21,-7.21
-3.02,7.8,1.58,-9.03,-9.17,-9.17
-2.54,7.88,1.56,-10.43,-10.5,-10.5
-2.11,7.87,1.53,-10.22,-10.01,-10.01
-1.84,7.81,1.54,-8.96,-7.98,-7.98
-1.57,7.88,1.54,-5.88,-5.46,-4.69
-1.39,8.23,1.5,-2.8,-2.8,-2.59
-1.19,8.38,1.48,-1.33,-1.33,-1.33
-0.95,8.67,1.54,-0.56,-0.35,-0.35
-0.88,8.81,1.55,0.35,0.49,0.49
-0.81,8.95,1.53,0.63,0.63,0.63
-0.67,9.07,1.51,0.77,0.77,0.77
-0.45,9.15,1.51,1.12,1.12,1.12
-0.32,9.3,1.53,0.84,0.84,0.42
-0.09,9.6,1.5,-1.26,-1.26,-1.68
0.19,9.74,1.53,-5.81,-5.81,-5.81
0.42,9.61,1.54,-8.54,-9.38,-9.38
0.79,9.45,1.67,-10.85,-10.85,-11.34
1.17,9.17,1.72,-11.69,-11.69,-11.69
1.47,8.92,1.8,-11.69,-11.69,-11.69
1.82,8.64,1.86,-9.24,-9.24,-9.24
2.22,8.38,1.87,-7.07,-6.44,-6.44
2.65,8.33,1.9,-5.04,-4.76,-4.48
3.2,8.37,2.01,-3.99,-3.92,-3.92
3.27,8.27,1.98,-3.99,-3.92,-3.99
3.08,8.22,1.88,-3.43,-3.43,-3.5
3.01,8.4,1.88,-3.57,-3.57,-3.85
2.83,8.59,1.83,-4.41,-4.41,-4.41
2.5,8.7,1.79,-4.2,-4.2,-4.2
2.19,8.78,1.75,-3.29,-3.29,-3.29
2.05,9.06,1.8,-2.17,-2.1,-2.1
1.89,9.16,1.86,-1.26,-1.05,-1.05
1.76,9.29,1.88,0,0,0.07
1.69,9.53,1.92,0.14,-17.78,-0.07
1.63,9.74,1.96,-0.84,-0.84,-1.26
1.65,9.66,1.94,-1.54,-1.54,-1.26
1.45,9.55,1.95,-0.77,-0.77,-0.63
1.34,9.63,2.03,-0.7,-0.7,-0.77
1.48,9.59,2.06,-1.68,-1.68,-1.68
1.54,9.5,2.08,-3.15,-3.15,-3.29
1.59,9.43,2.11,-4.41,-4.41,-4.69
1.45,9.25,2.09,-4.97,-4.97,-4.97
1.36,9.13,2.06,-4.48,-4.48,-4.48
1.39,9.27,2.1,-4.55,-4.55,-4.55
1.54,9.33,2.08,-5.67,-5.67,-5.67
1.57,9.3,2.13,-6.72,-7,-7
1.53,9.28,2.16,-7.91,-7.91,-7.91
1.49,9.22,2.2,-8.05,-7.91,-7.91
1.48,9.17,2.19,-6.65,-6.65,-6.65
1.46,9.24,2.32,-5.74,-5.46,-5.32
1.56,9.23,2.34,-3.99,-3.99,-3.99
1.49,9.13,2.34,-2.24,-2.24,-1.96
1.43,9.09,2.32,-0.14,0.35,0.35
1.31,9.04,2.3,2.1,2.1,2.17
1.28,9.09,2.3,3.36,3.36,3.36
1.29,9.12,2.31,3.78,3.78,3.78
1.24,9.14,2.3,3.92,3.92,3.92
1.18,9.08,2.28,4.48,4.48,4.48
1.25,9.03,2.25,5.18,5.32,5.32
1.21,8.99,2.23,5.74,5.74,5.74
1.03,9.1,2.22,5.6,5.6,5.6
0.85,9.21,2.19,4.13,4.13,4.13
0.77,9.18,2.07,3.08,3.08,3.08
0.88,9.23,2.01,1.33,1.33,1.33
0.93,9.37,2.05,-2.17,-2.59,-2.59
0.8,9.34,2.05,-5.53,-5.53,-5.53
0.48,9.15,2.05,-6.79,-6.86,-6.79
0.15,8.88,2.05,-5.88,-5.74,-5.74
-0.13,8.78,2.09,-2.24,-1.68,-1.68
-0.29,8.87,2.09,-0.21,0.21,0.28
-0.18,9.19,2.17,0.07,0.07,-0.56
-0.25,9.31,2.19,-2.38,-2.38,-3.36
-0.42,9.15,2.24,-4.06,-4.06,-3.99
-0.86,8.79,2.22,-1.96,-1.96,-1.4
-1.39,8.76,2.19,1.05,1.05,1.05
-1.78,8.9,2.15,3.29,3.43,3.43
-1.94,9.2,2.2,2.94,2.73,2.73
-2.07,9.23,2.19,1.19,1.19,0.84
-2.15,9.14,2.19,-0.7,-0.7,-0.7
-2.37,8.86,2.16,-0.7,-0.7,-0.7
-2.43,8.68,2.13,0,0,-0.07
-2.39,8.79,2.2,-0.35,-0.35,-0.35
-2.49,8.84,2.17,-2.45,-2.59,-2.59
-2.85,8.5,2.11,-2.38,-1.89,-1.89
-3.11,8.23,2.08,17.78,0.21,0.91
-3.14,8.41,2.06,2.1,2.17,2.17
-3.07,8.63,2.24,-0.98,-1.4,-1.4
-3.22,8.44,2.19,-4.06,-4.27,-4.27
-3.48,8.09,2.14,-4.62,-4.34,-4.34
-3.8,7.81,2.07,-3.36,-3.22,-3.15
-4.16,7.68,2.07,-1.82,-1.82,-1.82
-4.52,7.62,2.08,-1.19,-1.19,-1.19
-4.72,7.47,2.03,-0.7,-0.49,-0.49
-5.29,7.33,1.93,2.66,2.66,2.66
-5.55,7.28,1.94,1.61,1.61,1.4
-5.61,7.19,1.83,1.19,1.19,1.19
-5.71,7.04,1.74,1.19,1.19,1.19
-6.14,6.92,1.68,0.7,0.7,0.7
-6.82,6.63,1.67,1.75,1.75,1.75
-7.23,6.29,1.57,6.02,6.02,6.02
-6.93,6.52,1.64,10.22,10.36,10.36
-6.68,6.81,1.69,9.17,8.4,8.05
-6.76,6.73,1.64,5.88,5.04,4.76
-7.3,6.33,1.58,3.29,3.29,3.29
-7.61,6.17,1.45,2.45,2.38,2.38
-7.8,5.81,1.49,1.4,1.33,1.33
-8.21,5.27,1.4,1.4,1.4,1.54
-8.39,5.13,1.36,6.09,6.09,6.3
-7.77,5.68,1.37,3.57,2.66,2.66
-7.67,5.64,1.6,-6.37,-6.37,-6.37
-8.19,4.96,1.55,-13.79,-14.28,-14.28
-8.69,4.2,1.41,-14.56,-14.56,-14.35
-8.41,4.01,1.46,-11.41,-11.41,-10.99
-8.19,4.11,1.56,-10.99,-10.99,-10.99
-8.13,4.05,1.6,-12.6,-12.6,-12.6
-8.55,3.46,1.62,-10.36,-10.36,-10.36
-9.03,3.02,1.57,-5.32,-2.87,-2.87
-8.86,3.1,1.62,2.1,2.1,2.1
-9.09,3.13,1.64,5.32,5.32,5.32
-9.55,2.98,1.59,7.07,7.84,7.84
-9.76,2.83,1.56,10.22,10.22,10.57
-9.98,3.01,1.48,9.87,9.87,9.87
-9.85,3.28,1.5,7.07,5.88,5.88
-9.93,3.13,1.57,2.24,2.24,1.05
-10.46,2.57,1.34,-1.4,-1.4,-1.54
-10.57,2.15,1.23,-0.7,-0.7,-0.7
-10.48,2.02,1.24,1.47,1.47,1.47
-10.11,2.17,1.22,1.12,0.84,0.84
-9.86,2.08,1.23,-1.68,-1.68,-1.75
-9.69,1.72,1.14,-2.17,-2.17,-1.89
-9.64,1.55,1.15,0.07,0.07,0.07
-9.59,1.4,1.19,1.19,1.19,1.19
-10.12,1.02,1.11,2.1,2.1,2.1
-10.55,0.47,0.98,5.81,7.21,7.21
-10.77,0.46,0.96,10.22,10.64,11.2
-10.75,0.84,0.95,11.34,10.99,10.99
-10.45,1.15,1,7.7,5.67,5.67
-10.15,1.25,1,0.49,0.49,0.49
-9.73,1.24,1.11,-7.91,-7.91,-7.91
-9.59,1.04,1.13,-14.56,-14.56,-14.56
-9.69,0.32,1.03,-17.15,-17.15,-17.22
-9.82,-0.54,0.84,-14.91,-14.91,-14.07
-9.39,-0.98,0.96,3.01,3.01,3.01
-9.45,-1.18,0.98,3.36,3.36,3.43
-9.5,-1.27,1.05,3.36,3.36,3.36
-9.63,-1.13,1.14,0.21,0.21,0.21
-9.73,-1.15,1.07,-3.15,-3.15,-3.15
-10.01,-1.45,1.03,-4.48,-4.55,-4.55
-10.19,-1.66,1.05,-3.99,-3.99,-3.85
-10.34,-1.75,1.07,-2.17,-1.61,-1.61
-10.27,-1.7,1.09,-0.21,-0.21,-0.21
-10.04,-1.61,1.17,0.84,0.84,0.84
-9.89,-1.78,1.17,1.19,1.33,1.33
-9.89,-2.31,1.25,3.08,3.08,3.29
-9.92,-2.65,1.09,4.27,4.41,4.41
-9.93,-2.7,1.11,4.62,4.62,4.55
-9.78,-2.76,1.15,3.22,3.22,2.94
-9.57,-3.01,1.1,-3.71,-3.71,-3.71
-9.46,-3.09,1.14,-4.48,-4.69,-4.69
-9.37,-3.33,1.08,-4.76,-4.76,-4.76
-9.22,-3.46,1.01,-4.34,-4.34,-4.34
-9.16,-3.71,0.89,-2.45,-2.45,-2.45
-9.14,-3.88,0.76,1.12,1.12,1.12
-9.26,-4.12,0.86,4.76,4.76,4.76
-9.3,-4.25,0.86,7.91,8.26,8.26
-9.32,-4.26,0.84,9.8,10.29,10.29
-9.15,-4.12,0.91,10.43,10.36,10.36
-9.08,-4.08,1,9.73,9.17,9.17
-9.03,-4.18,1.08,8.05,7.98,7.49
-9.23,-4.39,1.11,6.3,6.23,6.23
-9.49,-4.48,1.21,5.25,4.69,4.69
-9.65,-4.64,1.18,3.78,3.78,3.43
-9.71,-4.62,1.15,3.01,2.87,2.87
-9.71,-4.51,1.22,1.61,1.54,1.54
-9.35,-4.37,1.18,-0.35,-0.35,-0.35
-9.23,-4.31,1.17,-0.91,-0.91,-0.91
-9.28,-4.51,1.13,-0.91,-0.77,-0.77
-9.47,-4.75,1.08,0.56,0.56,0.56
-9.45,-4.75,1.05,4.34,4.34,4.34
-9.26,-4.36,1.17,4.83,4.83,4.83
-9.34,-4.36,1.13,3.5,3.5,3.5
-9.44,-4.34,1.16,3.29,3.29,3.29
-9.61,-4.29,1.19,3.01,3.01,3.01
-9.86,-4.15,1.19,2.8,2.8,2.8
-9.98,-4.17,1.16,3.29,3.29,3.29
-10.09,-4.03,1.21,4.27,4.27,4.27
-10.05,-3.85,1.2,5.53,5.53,5.53
-9.88,-3.7,1.22,5.81,5.81,5.6
-9.85,-3.46,1.24,4.97,4.76,4.76
-9.94,-3.43,1.24,3.99,3.99,3.85
-10,-3.47,1.23,3.92,3.92,3.92
-9.95,-3.26,1.16,4.34,4.34,4.41
-9.98,-3.09,1.12,3.57,3.57,3.57
-10.14,-2.91,1.14,2.45,2.1,2.1
-10.27,-2.69,1.04,1.12,1.12,0.77
-10.36,-2.46,1.07,0,0,0
-10.52,-2.29,1.11,-1.68,-1.68,-1.68
-10.6,-2.26,1.02,-1.54,-1.19,-1.19
-10.72,-2.16,0.95,0.42,0.42,0.7
-11.02,-1.97,0.95,1.89,1.89,1.89
-11.07,-1.63,1.02,1.61,1.61,1.61
-11.03,-1.19,0.98,0.28,-0.56,-0.56
-10.75,-0.6,0.94,-2.94,-3.36,-3.36
-10.69,-0.29,0.91,-6.72,-7.77,-7.77
-10.76,-0.16,0.84,-9.94,-9.94,-10.64
-10.79,-0.21,0.75,-10.92,-10.92,-10.85
-10.61,-0.07,0.68,-9.03,-9.03,-8.33
-10.59,0.23,0.71,-6.51,-6.51,-6.51
-10.45,0.91,0.67,-5.25,-5.25,-5.25
-10.26,1.45,0.76,-6.86,-6.86,-6.86
-10.19,1.75,0.73,-9.87,-10.22,-10.22
-10.38,1.74,0.69,-11.48,-11.76,-11.83
-10.58,1.89,0.64,-11.76,-11.76,-11.13
-10.52,2.01,0.63,-9.59,-9.59,-8.54
-10.32,2.37,0.6,-6.72,-6.72,-6.72
-9.87,3.05,0.66,-5.32,-5.32,-5.32
-8.46,4.35,0.86,-10.43,-10.43,-10.43
-8.08,4.55,0.89,-13.65,-13.65,-13.65
-7.94,4.46,0.95,-14.21,-14.21,-13.79
-7.86,4.28,0.87,-11.34,-10.5,-10.5
-7.42,4.53,0.95,-5.25,-5.25,-4.97
-7.22,4.8,1.02,-3.57,-3.57,-3.57
-6.81,5.15,0.97,-3.15,-2.94,-2.94
-6.39,5.41,1.04,-2.87,-2.87,-2.94
-6.21,5.69,1.09,-4.13,-4.13,-4.13
-5.97,5.99,1.09,-7.14,-7.14,-7.14
-5.8,6.07,1.07,-8.12,-8.12,-8.12
-5.45,6.17,1.03,-7.56,-7.21,-7.21
-5.05,6.36,1.09,-6.37,-6.37,-6.37
-5.03,6.78,1.04,-7.63,-7.63,-7.63
-5.02,7.05,1.03,-10.29,-10.5,-10.5
-5.14,7.14,0.95,-11.41,-11.55,-11.69
-4.87,7.33,0.98,-11.97,-12.11,-12.11
-4.6,7.61,1.06,-13.3,-13.37,-13.37
-4.41,7.81,1.2,-14.07,-14.21,-14.21
-4.09,7.97,1.41,-14.07,-14.21,-14.21
-3.86,8.14,1.52,-14.28,-14.21,-14.21
-3.71,8.15,1.66,-13.72,-13.72,-13.51
-3.57,8.08,1.79,-8.75,-8.75,-7.98
-3.55,8.19,1.91,-3.22,-3.22,-2.59
-3.6,8.58,2.04,0.49,0.49,0.7
-3.42,8.84,2.14,1.82,1.89,2.03
-3.43,9.05,2.09,2.52,2.52,2.52
-3.38,9.17,2.14,2.45,2.45,2.45
-3.28,9.3,2.08,1.19,1.19,1.26
-3.21,9.24,1.95,1.33,1.33,1.54
-3.01,9.05,1.94,2.73,2.73,2.66
-2.54,9.23,1.94,2.03,2.03,1.68
-2.23,9.26,1.98,-1.54,-1.54,-1.54
-1.84,8.98,1.88,-2.45,-2.45,-2.66
-1.46,8.71,1.83,-2.59,-2.59,-2.59
-0.48,8.54,1.69,-3.43,-3.43,-3.43
0.27,8.58,1.69,-5.32,-5.95,-5.95
0.98,8.36,1.63,-7.84,-7.84,-7.98
1.29,8.23,1.63,-8.54,-8.54,-8.54
1.73,8.21,1.65,-8.33,-8.33,-8.33
2.27,8.3,1.7,-8.54,-8.54,-8.54
2.46,8.43,1.72,-8.82,-8.82,-8.82
2.27,8.43,1.79,-8.68,-8.68,-8.54
2.14,8.43,1.82,-7.28,-7.28,-7.28
1.76,8.4,1.81,-5.6,-4.97,-4.97
1.16,8.71,1.86,-3.36,-3.15,-3.15
0.77,8.96,1.9,-3.57,-3.57,-3.57
0.25,9.24,1.92,-4.76,-4.76,-4.83
-0.01,9.4,1.97,-6.65,-6.65,-6.86
-0.29,9.52,2.02,-8.82,-8.82,-8.82
-0.56,9.51,2.02,-10.71,-10.71,-10.85
-0.86,9.41,2.2,-12.81,-12.81,-12.81
-1.12,9.13,2.29,-12.32,-12.32,-12.32
-1.33,8.9,2.36,-9.66,-8.33,-8.33
-1.44,9.03,2.52,-6.02,-6.02,-6.02
-1.41,9.18,2.62,-4.69,-4.62,-4.62
-1.42,9.17,2.66,-4.27,-3.92,-3.92
-1.45,9.15,2.67,-3.5,-3.5,-3.5
-1.34,9.19,2.76,-4.76,-5.11,-5.11
-1.45,9.2,2.74,-7.07,-7.98,-7.98
-1.56,8.88,2.68,-8.26,-8.19,-7.98
-1.75,8.61,2.62,-6.65,-6.37,-5.6
-1.98,8.48,2.61,-3.85,-3.57,-2.94
-2.31,8.63,2.61,-2.17,-2.17,-2.24
-2.42,8.75,2.61,-2.24,-2.52,-2.73
-2.66,8.68,2.64,-3.36,-3.43,-3.85
-2.86,8.63,2.6,-4.13,-4.13,-4.2
-3.16,8.58,2.63,-4.55,-4.55,-4.83
-3.32,8.39,2.72,-5.53,-5.53,-5.46
-3.41,8.04,2.74,-4.48,-4.48,-4.13
-3.44,7.91,2.74,-1.82,-1.82,-1.82
-3.56,8.02,2.81,0.07,0.14,0.14
-3.65,7.99,2.9,-0.07,-0.07,-0.28
-4.14,7.79,2.93,-0.84,-0.84,-0.84
-4.8,7.54,2.89,-0.21,-0.21,-0.07
-5.22,7.51,2.89,0.28,0.35,0.35
-5.26,7.57,2.84,0.7,0.7,0.84
-5.13,7.71,2.71,0.77,0.77,0.77
-5.33,7.64,2.65,-0.42,-0.42,-0.42
-5.62,7.5,2.71,-1.68,-1.68,-1.68
-5.85,7.35,2.68,-1.89,-1.89,-1.89
-5.94,7.25,2.64,-2.17,-2.17,-2.17
-5.88,7.27,2.58,-3.15,-3.5,-3.5
-5.69,7.21,2.58,-4.97,-4.97,-5.25
-5.69,7.01,2.52,-5.95,-5.95,-5.95
-6.12,6.31,2.57,-4.69,-4.69,-4.69
-6.5,5.93,2.6,-0.56,-0.56,-0.56
-6.61,5.99,2.59,1.89,1.89,1.89
-6.57,6.14,2.63,1.33,1.12,1.12
-6.57,6.01,2.71,-1.19,-2.52,-2.52
-6.82,5.64,2.66,-3.99,-3.99,-4.27
-7.08,5.32,2.5,-2.1,-1.82,-1.82
-7.19,5.23,2.5,0.35,0.35,0.35
-7.08,5.41,2.54,0,0,-0.49
-7.27,5.08,2.52,-1.54,-1.61,-1.61
-7.75,4.62,2.47,-0.7,-0.7,-0.49
-7.94,4.77,2.43,0.91,0.91,0.91
-7.75,4.78,2.34,-0.07,-0.07,-0.07
-8.21,4.27,2.32,-2.24,-2.31,-2.31
-8.64,3.72,2.28,-1.12,-1.12,-1.12
-8.7,3.72,2.23,2.24,2.38,2.38
-8.46,3.88,2.23,1.82,1.54,1.54
-8.65,3.44,2.23,-1.54,-1.54,-1.54
-8.93,2.91,2.23,-2.03,-2.03,-2.03
-8.99,2.39,2.25,-0.7,-0.7,-0.35
-8.98,2.33,2.21,1.68,1.68,1.96
-8.86,2.43,2.24,3.15,3.15,3.15
-8.92,2.38,2.37,1.05,0.07,0.07
-9.54,2,2.18,-1.89,-1.89,-1.89
-9.75,1.56,1.99,-0.28,-0.28,-0.28
-9.68,1.79,1.96,0.56,0.56,0.56
-9.56,1.94,1.92,-1.19,-1.19,-1.19
-9.57,1.79,1.93,-4.41,-4.41,-4.41
-9.45,1.66,1.86,-6.3,-6.3,-6.3
-9.46,1.18,1.85,-8.82,-8.82,-9.45
-9.87,0.02,1.81,-7.07,-7.07,-7.07
-10.01,-0.57,1.81,-3.92,-2.38,-2.38
-10.1,-0.73,1.68,1.05,1.96,3.5
-10.1,-0.38,1.76,6.93,6.93,6.93
-10.17,0.02,1.7,-8.68,-8.68,-8.68
-10.35,-0.75,1.57,-12.04,-12.04,-12.04
-10.14,-0.95,1.5,-10.57,-10.57,-10.57
-9.81,-1.1,1.56,-8.33,-8.33,-8.33
-9.82,-1.36,1.66,-8.12,-8.4,-8.4
-9.95,-1.9,1.68,-8.61,-8.33,-8.33
-10.14,-2.44,1.67,-5.6,-5.6,-5.11
-9.99,-2.11,1.75,-2.59,-2.59,-2.59
-9.46,-1.68,1.83,-3.64,-3.99,-3.99
-9.23,-1.81,1.96,-8.68,-9.87,-10.5
-9.34,-2.29,1.92,-12.18,-12.18,-11.69
-9.5,-2.96,1.74,-7.14,-7.14,-7.14
-9.79,-3.11,1.68,-1.96,-1.26,-0.49
-9.59,-2.48,1.81,1.05,1.05,0.91
-9.3,-2.48,1.83,-0.77,-0.77,-0.77
-9.23,-2.7,1.81,-4.55,-4.55,-4.55
-9.39,-3.03,1.74,-5.74,-5.74,-5.74
-9.24,-3.42,1.67,-4.76,-4.55,-4.55
-9.08,-3.68,1.62,-1.68,-0.84,-0.84
-8.88,-3.72,1.66,0.56,0.56,0.7
-8.89,-3.74,1.7,-0.84,-0.84,-0.84
-9.06,-3.92,1.67,-2.24,-2.24,-2.24
-9.14,-4.2,1.6,-1.82,-1.61,-1.61
-9.5,-4.39,1.54,-0.84,-0.63,-0.63
-9.82,-4.65,1.55,0.35,0.35,0.35
-9.97,-4.69,1.54,0.49,0.28,0.14
-9.82,-4.67,1.53,-0.7,-1.19,-1.47
-9.68,-4.69,1.48,-3.08,-3.08,-3.29
-9.53,-4.68,1.47,-5.11,-5.11,-5.11
-9.46,-4.74,1.58,-5.88,-5.88,-5.88
-9.55,-4.88,1.58,-5.81,-5.74,-5.74
-9.52,-5.14,1.54,-3.92,-3.92,-3.01
-9.34,-5.25,1.57,0.63,0.63,0.63
-9.27,-5.33,1.57,3.22,3.22,3.22
-9.28,-5.22,1.6,4.41,4.97,4.97
-9.19,-5.08,1.58,5.67,5.67,5.67
-9.24,-4.96,1.62,5.39,5.39,4.97
-9.63,-5.03,1.57,1.54,1.54,1.54
-9.6,-5.17,1.57,0.91,0.77,0.77
-9.54,-5.25,1.52,1.05,1.05,1.12
-9.41,-5.19,1.49,1.4,1.4,1.4
-9.27,-5.11,1.52,1.82,2.1,2.17
-8.78,-4.83,1.53,4.55,4.76,4.76
-8.68,-4.72,1.59,5.25,5.18,5.18
-8.7,-4.7,1.58,4.69,4.55,4.55
-8.8,-4.79,1.56,4.2,4.2,4.2
-9.01,-4.77,1.57,4.2,4.2,4.2
-9.25,-4.77,1.51,4.27,4.27,4.27
-9.43,-4.58,1.45,4.9,4.9,4.9
-9.48,-4.5,1.45,5.39,5.32,5.32
-9.57,-4.29,1.44,5.11,5.18,5.18
-9.64,-3.9,1.27,0.56,0.56,0.56
-9.61,-3.92,1.3,0.42,0.42,0.42
-9.69,-3.87,1.26,0.49,0.49,0.49
-9.74,-3.52,1.26,0.77,0.7,0.7
-9.72,-3.16,1.29,1.05,1.05,1.12
-9.76,-2.8,1.38,0.91,0.91,0.84
-10.01,-2.66,1.42,0.56,0.56,0.56
-10.4,-2.74,1.37,1.47,1.47,1.47
-10.67,-2.78,1.27,3.85,3.85,3.85
-10.84,-2.63,1.31,4.97,4.97,4.97
-10.95,-2.32,1.32,5.46,5.46,5.46
-10.95,-2.02,1.29,5.74,5.74,5.74
-10.83,-1.56,1.3,5.32,5.32,5.32
-10.86,-1.2,1.27,2.38,1.96,1.96
-10.85,-1.03,1.2,0.07,-0.63,-0.63
-10.62,-0.79,1.16,-1.68,-1.68,-1.68
-10.5,-0.67,1.11,-1.68,-1.68,-1.68
-10.29,-0.35,1.07,-1.12,-1.12,-1.05
-10.11,-0.08,1.07,-0.07,0.21,0.21
-10.04,0.21,1.04,1.4,1.4,1.68
-9.94,0.5,1.01,3.15,3.15,3.15
-9.77,0.86,1.11,3.5,3.5,3.5
-9.59,1.4,1.14,1.12,1.12,1.12
-9.3,1.64,1.13,-0.91,-0.91,-0.91
-9.01,1.9,1.12,-1.75,-1.68,-1.68
-8.89,1.96,1.13,-1.82,-1.68,-1.68
-8.96,2.15,1.26,-1.75,-1.61,-1.61
-8.62,2.61,1.28,-0.14,-0.14,-0.14
-8.2,3.1,1.29,0.84,0.7,0.7
-8.05,3.37,1.3,-0.21,-0.42,-0.84
-7.86,3.69,1.39,-1.89,-1.89,-1.89
-7.8,3.78,1.33,-1.05,-1.05,-1.05
-7.69,3.97,1.26,1.26,1.26,1.26
-7.76,4.25,1.3,3.36,3.36,3.36
-7.73,4.57,1.26,4.9,5.39,5.39
-7.26,5.69,1.15,5.11,5.11,5.11
-7.35,5.89,1.19,3.08,2.38,2.38
-7.52,6.01,1.13,1.19,1.19,1.19
-7.48,6.22,1.16,1.05,1.05,0.84
-7.32,6.64,1.21,-0.07,-0.07,-0.14
-7.2,6.75,1.17,-2.03,-2.03,-2.03
-7.08,6.94,1.13,-3.22,-3.22,-3.22
-6.96,6.97,1.11,-2.87,-2.87,-2.87
-6.84,7.12,1.15,-1.75,-1.75,-1.75
-6.49,7.37,1.17,-0.77,-0.77,-0.77
-6.19,7.59,1.09,-0.21,-0.07,-0.07
-5.61,7.85,1.1,-0.28,-0.77,-0.77
-5.18,8.04,1.11,-1.82,-2.52,-2.52
-4.69,7.95,1.08,-3.08,-2.94,-2.94
-4.23,7.92,0.91,-2.03,-2.03,-2.03
-3.88,8.12,0.95,-2.03,-2.03,-2.03
-3.63,8.35,0.89,-4.83,-4.83,-4.83
-3.29,8.31,0.83,-5.74,-5.74,-5.88
-3,8.35,0.95,-7.21,-7.21,-7.21
-2.93,8.29,0.92,-7.7,-7.7,-7.7
-2.71,8.31,0.93,-7.49,-7.49,-7.56
-2.48,8.27,0.97,-6.93,-6.93,-6.93
-2.25,8.36,0.99,-5.53,-5.53,-5.53
-2,8.47,1.1,-4.76,-4.76,-4.76
-1.84,8.59,1.15,-4.69,-4.69,-4.69
-1.63,8.72,1.12,-5.04,-5.04,-5.04
-1.37,8.98,1.23,-6.72,-6.72,-6.72
-1.06,9.21,1.36,-9.8,-9.8,-9.8
-0.58,9.09,1.5,-14.7,-14.84,-14.84
-0.44,8.9,1.6,-14.63,-14.42,-14.42
-0.14,8.79,1.71,-11.62,-11.2,-11.2
0.04,8.68,1.79,-7.84,-7.28,-7.28
0.13,8.62,1.87,-4.2,-2.17,-2.17
0.28,8.62,1.87,1.26,1.89,3.22
0.53,8.82,1.91,5.88,6.23,6.79
0.7,9.16,1.82,7.84,7.98,7.98
0.85,9.32,1.79,8.12,8.26,8.26
0.84,9.33,1.69,8.47,8.47,8.47
0.78,9.41,1.63,8.12,7.77,7.49
0.38,9.51,1.44,5.39,5.39,5.39
0.11,9.48,1.36,2.38,2.31,2.31
-0.06,9.39,1.33,1.19,1.12,1.12
-0.11,9.3,1.3,0.42,0.42,0.42
-0.01,9.34,1.31,-0.42,-0.49,-0.49
0.33,9.43,1.36,-6.09,-6.09,-6.23
0.4,9.39,1.45,-7.7,-7.84,-7.84
0.36,9.29,1.52,-8.54,-8.54,-8.4
0.33,9.18,1.56,-8.05,-7.63,-7.49
0.27,9.11,1.65,-6.58,-6.58,-6.02
0.01,9.02,1.68,-4.69,-4.69,-4.48
-0.23,8.98,1.72,-1.61,-1.61,-1.33
-0.42,9,1.77,-0.91,-0.91,-0.84
-0.64,8.89,1.76,-0.35,-0.35,-0.28
-1.07,8.7,1.74,0.63,0.63,0.84
-1.44,8.6,1.61,3.15,3.15,3.15
-1.73,8.62,1.62,4.69,4.83,4.83
-1.83,8.86,1.62,4.9,4.9,4.83
-2.04,8.92,1.64,3.22,3.22,3.22
-2.34,8.83,1.6,1.12,0.98,0.98
-2.57,8.78,1.61,0.07,0.07,0.07
-2.67,8.68,1.58,-1.19,-1.19,-1.19
-2.9,8.55,1.54,-1.75,-1.75,-1.75
-3.11,8.5,1.54,-2.03,-2.1,-2.31
-3.41,8.42,1.58,-2.87,-3.01,-3.01
-3.71,8.18,1.55,-4.13,-4.06,-4.06
-4.01,8.16,1.54,-3.99,-4.13,-4.13
-4.16,8.2,1.58,-5.04,-5.11,-5.11
-4.37,8.03,1.64,-5.81,-5.81,-5.81
-4.7,7.78,1.72,-5.67,-5.6,-5.6
-4.86,7.73,1.71,-5.11,-5.11,-5.18
-4.97,7.68,1.72,-5.04,-5.04,-4.83
-5.1,7.77,1.65,-5.11,-5.11,-5.46
-5.05,7.83,1.74,-6.72,-6.72,-7.21
-5.02,7.55,1.71,-13.02,-13.02,-13.09
-5.47,6.87,1.61,-10.78,-10.78,-10.78
-6.28,6.21,1.5,-3.71,-2.87,-2.87
-6.84,6.16,1.57,1.82,4.69,4.69
-6.95,6.44,1.55,8.33,9.52,9.52
-7.1,6.79,1.65,9.8,9.45,8.82
-7.28,7.03,1.66,5.46,4.97,4.97
-7.59,6.86,1.58,-1.75,-1.75,-1.75
-7.85,6.66,1.65,-4.13,-4.83,-4.83
-8.04,6.49,1.54,-6.09,-6.3,-6.3
-7.64,6.56,1.55,-7.14,-7.63,-7.63
-7.76,5.29,1.48,-12.6,-12.6,-12.6
-8.26,4.58,1.44,-5.67,-5.67,-5.67
-8.29,4.36,1.42,0.56,2.45,2.45
-7.81,4.76,1.48,4.97,4.97,4.83
-7.52,5.1,1.58,1.54,1.54,0.07
-7.48,5,1.61,-4.27,-4.27,-4.27
-7.89,4.48,1.55,-8.05,-8.05,-8.05
-8.01,4.3,1.54,-9.52,-9.52,-9.52
-8,4.09,1.57,-11.13,-11.27,-11.27
-8.06,3.83,1.58,-11.2,-11.2,-11.2
-8.09,3.69,1.58,-9.03,-7.98,-7.98
-8.13,3.72,1.72,-6.93,-6.93,-7
-8.46,3.56,1.74,-8.12,-8.4,-8.4
-9.2,2.79,1.7,-10.22,-10.22,-10.01
-10.18,2.14,1.49,-5.95,-5.95,-4.97
-10.6,1.78,1.53,0.14,2.24,2.24
-10.41,2.18,1.53,6.86,7.56,7.77
-9.6,3.13,1.7,5.95,5.95,5.95
-9.06,3.58,1.81,-1.47,-2.38,-2.38
-9.32,3.32,1.8,-7.42,-9.17,-9.94
-9.56,2.7,1.73,-12.53,-12.53,-12.53
-9.78,2,1.66,-11.27,-11.27,-11.06
-10.05,1.66,1.49,-7.07,-7.07,-7.07
-10.09,1.44,1.51,-4.13,-3.29,-3.29
-10.25,1.1,1.37,-0.49,-0.07,17.85
-10.28,0.91,1.29,3.36,3.36,3.36
-10.22,0.94,1.31,4.34,4.13,4.13
-10.27,0.93,1.3,2.73,2.73,2.38
-10.09,1.02,1.27,-1.54,-1.54,-1.54
-9.64,1.14,1.27,-4.69,-5.39,-5.39
-9.38,1.18,1.36,-12.11,-12.11,-13.09
-9.52,0.7,1.41,-18.97,-18.97,-19.6
-9.75,0.2,1.37,-21.7,-21.7,-21.7
-10.17,-0.76,1.27,-18.76,-18.76,-18.76
-10.3,-1.17,1.34,-12.39,-12.39,-12.39
-10.08,-1.12,1.41,-4.48,-4.48,-4.48
-9.9,-0.83,1.5,-2.31,-2.03,-2.03
-9.41,-0.98,1.58,0.14,0.28,0.28
-9.34,-1.04,1.73,-0.49,-0.49,-0.7
-9.67,-1.28,1.7,-3.36,-3.36,-3.36
-9.8,-1.61,1.59,-2.66,-2.66,-2.66
-9.63,-1.8,1.5,-0.7,-0.42,-0.42
-9.51,-1.79,1.54,1.54,1.54,1.61
-9.55,-1.96,1.46,2.38,2.38,2.59
-9.45,-2.21,1.39,5.04,5.04,5.04
-9.62,-2.47,1.31,6.93,7.56,7.56
-9.75,-2.86,1.22,9.52,9.8,9.8
-9.82,-2.98,1.24,11.13,11.13,11.13
-9.93,-3.07,1.26,10.92,10.92,10.92
-9.81,-3.06,1.25,9.94,9.94,9.94
-9.66,-3.09,1.31,8.47,8.47,8.47
-9.6,-3.02,1.38,4.76,4.76,4.76
-9.54,-3.14,1.41,2.45,2.45,2.45
-9.43,-3.47,1.33,-0.21,-0.21,-0.21
-9.46,-3.8,1.32,-0.7,-0.77,-0.77
-9.5,-4.11,1.36,-0.14,17.78,0.07
-9.3,-4.38,1.34,4.97,4.97,4.76
-8.99,-4.33,1.37,4.13,4.13,4.13
-8.96,-4.54,1.31,2.31,2.31,2.31
-9.25,-4.76,1.24,1.54,1.47,1.47
-9.29,-5,1.27,1.26,1.26,1.26
-8.89,-4.87,1.39,1.61,1.61,1.61
-8.63,-4.83,1.45,1.33,1.33,1.33
-8.63,-4.95,1.5,0.56,0.56,0.56
-8.61,-5.38,1.45,1.54,2.31,2.31
-8.67,-5.8,1.38,5.46,6.58,6.58
-8.65,-5.82,1.46,9.45,9.45,9.45
-8.58,-5.65,1.59,9.87,9.87,9.59
-8.86,-5.81,1.6,7.84,7.63,7.63
-9.17,-5.88,1.63,5.81,5.81,5.67
-9.12,-5.79,1.67,5.25,5.25,5.32
-9,-5.48,1.78,3.5,3.5,3.01
-9.25,-5.63,1.74,-2.03,-2.03,-1.68
-9.38,-5.75,1.74,3.71,3.71,3.71
-9.51,-5.7,1.78,7.84,7.84,7.84
-9.53,-5.81,1.65,11.97,11.97,11.97
-9.43,-5.59,1.55,15.61,15.61,15.61
-9.34,-5.25,1.59,16.8,16.87,16.87
-9.39,-4.94,1.61,16.31,15.82,15.82
-9.43,-4.71,1.6,13.93,13.93,13.93
-9.57,-4.57,1.52,11.27,11.27,11.27
-9.74,-4.47,1.43,9.1,9.1,9.1
-10.11,-4.64,1.16,8.68,8.68,8.68
-10.25,-4.51,1.08,9.87,10.08,10.08
-10.24,-4.12,1.08,10.5,10.22,10.22
-10.17,-3.56,1.02,8.96,8.54,8.54
-10.15,-3.06,1.11,3.5,2.94,2.94
-10.33,-3.08,1.27,-4.97,-4.97,-4.97
-10.52,-3.22,1.23,-6.3,-6.16,-6.16
-10.65,-3.25,1.3,-4.9,-4.9,-4.9
-10.67,-3.08,1.35,-2.8,-2.8,-2.31
-10.57,-2.63,1.52,-1.05,-1.05,-1.05
-10.51,-2.36,1.51,-0.14,-0.21,-0.21
-10.6,-2.05,1.55,-0.14,-0.14,-0.14
-10.65,-1.75,1.63,-0.14,-0.35,-0.28
-10.65,-1.23,1.67,-1.12,-1.33,-1.75
-10.68,-0.94,1.68,-3.08,-3.08,-3.15
-10.62,-0.79,1.53,-2.59,-2.03,-1.68
-10.55,-0.45,1.5,0.49,0.49,1.4
-10.64,-0.11,1.51,4.27,4.27,4.48
-10.43,0.32,1.43,6.44,6.44,6.86
-10.34,0.47,1.33,9.38,9.38,9.38
-9.58,2.23,1.27,10.92,10.92,10.92
-9.37,2.57,1.21,6.44,6.02,6.02
-9.03,2.84,1.28,3.78,3.64,3.64
-8.79,3.01,1.34,1.96,1.75,1.75
-8.63,3.14,1.28,0.84,0.21,0.21
-8.54,3.33,1.23,-0.21,-0.21,-0.07
-8.15,3.78,1.19,1.12,1.12,1.33
-7.56,4.04,1.18,1.54,1.54,1.54
-7.15,4.52,1.14,1.4,1.54,1.54
-6.59,4.91,1.12,2.73,2.73,2.73
-6.31,5.3,1.07,2.94,2.8,2.8
-5.91,5.57,0.99,3.01,3.01,3.08
-5.86,5.78,1,4.06,4.06,4.06
-5.84,5.8,0.87,6.16,6.16,6.16
-5.62,6.75,0.85,8.26,7.98,7.98
-5.28,7.25,0.79,5.53,3.78,3.78
-4.82,7.57,0.89,-0.63,-0.63,-0.63
-4.88,7.53,0.82,-4.41,-4.41,-4.41
-4.72,7.48,0.77,-4.34,-4.34,-4.34
-4.5,7.61,0.67,-2.8,-2.59,-2.59
-4.06,8.1,0.71,-2.52,-2.59,-2.59
-3.62,8.25,0.82,-5.04,-5.04,-5.32
-3.26,8.25,0.84,-6.51,-6.86,-6.93
-2.91,8.14,0.85,-7,-7,-6.86
-2.77,8.23,1,-6.37,-6.37,-5.88
-2.34,8.34,1.15,-4.9,-4.9,-4.9
-0.91,8.62,1.49,-1.68,-1.68,-1.68
-0.43,8.85,1.52,0.14,0.14,0.14
-0.01,8.94,1.55,0.84,0.98,0.98
0.4,9.01,1.55,1.33,1.33,1.33
0.57,8.94,1.57,1.33,1.33,1.54
0.48,8.76,1.45,2.8,2.8,2.8
0.28,8.68,1.27,5.67,5.67,5.67
0.29,8.98,1.25,7.91,7.91,8.12
0.34,9.12,1.19,8.19,8.19,8.33
0.12,9.2,1.13,7.98,7.98,7.91
-0.09,9.27,1.03,7.56,7.56,7.49
-0.16,9.44,0.97,5.74,5.74,5.39
0.05,9.66,0.95,2.03,2.03,0.7
0.21,9.77,0.9,-3.43,-3.43,-4.83
0.36,9.69,0.91,-8.68,-8.68,-9.73
0.54,9.42,0.99,-11.76,-11.76,-11.9
0.73,9.13,1.01,-11.2,-11.2,-10.92
0.82,9.13,1.06,-10.08,-10.08,-10.08
0.91,9.14,1.12,-9.31,-9.31,-9.03
1.04,9.12,1.12,-8.47,-8.47,-8.47
1,9.08,1.16,-7.63,-7.63,-7.63
1,9.18,1.25,-7.28,-7.28,-7.28
0.94,9.24,1.33,-7.77,-7.84,-7.84
0.9,9.15,1.3,-7.7,-7.7,-7.56
0.69,9.09,1.31,-7.07,-7.07,-6.93
0.43,9.11,1.43,-7.21,-7.21,-7.21
0.25,9.2,1.59,-8.61,-8.61,-8.61
0.11,9.12,1.69,-9.59,-9.59,-9.66
-0.13,9.01,1.71,-9.24,-9.24,-9.24
-0.41,8.76,1.81,-7.42,-7.42,-7.42
-0.69,8.61,1.75,-2.87,-2.87,-2.87
-0.9,8.68,1.81,-0.35,0.42,0.42
-1.13,8.83,1.75,2.24,2.24,2.38
-1.41,8.95,1.76,3.01,3.01,3.01
-1.62,9.09,1.69,2.03,2.03,2.03
-1.91,9.05,1.67,-0.28,-0.28,-0.28
-2.2,8.91,1.6,-1.75,-1.75,-1.75
-2.48,8.78,1.62,-2.03,-2.03,-2.03
-2.89,8.59,1.5,-0.77,-0.77,-0.77
-3.25,8.51,1.43,2.1,2.1,2.1
-3.24,8.82,1.54,2.1,2.1,1.75
-3.38,9.07,1.54,-0.21,-1.33,-1.68
-4.09,8.67,1.58,-5.53,-5.53,-5.53
-4.45,8.53,1.52,-5.39,-5.39,-5.39
-4.79,8.46,1.53,-4.69,-4.69,-4.69
-4.97,8.58,1.71,-5.11,-5.32,-5.32
-4.84,8.51,1.72,-6.79,-6.79,-6.79
-4.93,8.22,1.76,-9.17,-9.17,-9.87
-5.53,7.25,1.74,-4.97,-4.97,-4.97
-5.56,7.12,1.79,1.54,1.54,1.54
-5.25,7.42,1.77,3.36,3.5,3.5
-5,7.59,1.89,2.87,2.87,2.59
-4.76,7.55,1.87,0.91,0.63,0.63
-4.69,7.42,1.84,-2.17,-2.17,-2.66
-4.82,7.39,1.81,-5.53,-5.53,-6.09
-5.14,7.12,1.83,-9.8,-10.15,-10.15
-5.55,6.72,1.75,-11.62,-11.62,-11.62
-6.34,6.21,1.59,-9.1,-9.1,-9.1
-6.53,6.01,1.61,-3.85,-3.36,-3.36
-6.63,6.21,1.65,-2.17,-2.59,-2.59
-6.56,6.65,1.74,-4.97,-5.67,-7.28
-6.55,6.75,1.84,-11.76,-12.46,-12.46
-6.78,6.31,1.73,-19.25,-19.25,-19.88
-6.9,5.85,1.75,-22.61,-22.61,-22.68
-7.18,5.68,1.73,-22.89,-22.89,-22.75
-7.67,5.04,1.83,-21.07,-19.88,-19.11
-8.39,4.31,1.78,-14.07,-11.34,-10.01
-8.28,4.3,1.79,-2.73,-2.73,1.4
-7.46,4.95,1.91,7.07,7.07,7.07
-7.14,5.5,2.01,5.39,4.83,4.83
-7.54,5.24,2,-0.21,-0.77,-0.77
-8.14,4.64,1.89,-3.15,-3.15,-3.08
-8.75,4.06,1.75,-1.47,-1.47,-1.05
-8.65,3.91,1.62,2.59,2.59,2.59
-8.92,3.79,1.66,3.29,3.29,3.29
-9.36,3.52,1.52,4.83,4.83,4.83
-9.71,3.31,1.49,6.16,6.44,6.44
-9.6,3.37,1.51,6.86,6.37,6.37
-9.32,3.81,1.61,2.31,2.31,2.31
-9.35,3.81,1.62,-7.98,-7.98,-7.98
-9.26,3.6,1.61,-13.65,-13.65,-15.26
-9.28,2.94,1.56,-18.13,-18.13,-18.13
-9.57,1.8,1.42,-14.84,-14.84,-14.84
-9.72,1.47,1.52,-13.44,-12.95,-12.95
-9.77,1.02,1.48,-10.29,-10.29,-9.17
-9.58,0.82,1.42,-4.55,-4.55,-4.55
-9.73,0.77,1.45,-2.59,-2.59,-2.59
-9.7,1,1.59,-3.5,-3.78,-3.78
-9.64,0.98,1.68,-5.6,-5.6,-5.95
-9.93,0.74,1.58,-7.35,-7.35,-7.35
-9.98,0.65,1.55,-7.28,-7.28,-7.28
-9.8,0.56,1.62,-7.07,-7.07,-7.21
-9.92,0.39,1.63,-7.98,-7.98,-8.05
-10.83,-0.64,1.42,-7.49,-7,-7
-10.66,-0.82,1.43,-3.43,-3.43,-3.22
-10.45,-0.67,1.49,-2.94,-3.22,-3.36
-10.29,-0.68,1.56,-4.83,-4.83,-5.11
-10.29,-0.92,1.6,-7.21,-7.35,-7.35
-10.08,-1.14,1.59,-8.26,-8.26,-8.26
-9.69,-1.18,1.7,-9.31,-9.31,-9.45
-9.38,-1.13,1.69,-11.48,-11.76,-11.76
-9.09,-1.4,1.71,-13.86,-13.86,-13.86
-9.06,-1.83,1.68,-14,-13.72,-13.58
-9.35,-2.4,1.67,-12.04,-12.04,-10.5
-9.61,-3.02,1.58,-6.93,-6.93,-6.09
-9.58,-3.23,1.47,0.21,0.21,2.38
-9.71,-3.03,1.53,4.62,4.62,4.62
-9.75,-2.9,1.51,2.73,2.73,2.73
-9.82,-2.9,1.47,0.84,0.14,0.14
-9.82,-3.12,1.48,-2.03,-2.03,-2.45
-9.76,-3.31,1.37,-4.69,-4.9,-4.9
-9.7,-3.45,1.36,-6.51,-6.72,-6.72
-9.75,-3.87,1.18,-7.35,-7.35,-7.14
-9.56,-4.22,1.21,-5.6,-5.6,-5.25
-9.36,-4.4,1.26,-2.45,-2.45,-2.45
-9.14,-4.35,1.27,-1.75,-1.61,-1.61
-8.8,-4.29,1.22,-1.33,-1.54,-1.54
-8.49,-4.24,1.33,-2.66,-2.66,-3.08
-8.48,-4.51,1.43,-5.6,-5.6,-5.6
-8.55,-4.83,1.23,-6.72,-6.86,-6.86
-8.58,-5.22,1.22,-6.51,-6.09,-6.09
-8.53,-5.43,1.34,-5.11,-5.11,-5.11
-8.47,-5.58,1.37,-4.13,-4.13,-4.13
-8.43,-5.65,1.35,-3.15,-3.01,-3.01
-8.34,-5.66,1.41,-3.01,-2.87,-2.87
-8.47,-5.83,1.39,-3.36,-3.43,-3.43
-8.44,-6.11,1.5,-3.36,-3.29,-3.29
-8.3,-6.25,1.5,-2.66,-2.45,-2.45
-8.04,-6.11,1.45,-2.38,-2.66,-2.66
-7.8,-5.89,1.45,-3.99,-3.99,-3.99
-7.64,-6.15,1.42,-4.97,-4.97,-4.97
-7.46,-6.46,1.23,-3.92,-3.92,-3.92
-7.26,-6.63,1.02,-1.4,-1.4,-1.4
-7.2,-6.8,0.92,1.12,1.33,1.33
-7.19,-6.85,0.95,1.82,1.96,1.96
-7.24,-7.04,0.97,1.26,1.26,0.98
-7.19,-7.02,1.04,-0.28,-0.28,-0.56
-7.26,-7.13,1.1,-2.24,-2.87,-2.87
-7.4,-6.91,1.33,-5.04,-5.39,-5.39
-7.44,-6.81,1.45,-7.84,-7.84,-7.84
-7.45,-6.75,1.73,-10.57,-10.78,-10.78
-7.58,-6.86,1.9,-12.39,-12.53,-12.53
-7.6,-7.09,2.07,-13.37,-13.37,-13.23
-7.62,-7.8,2.07,1.75,1.75,1.75
-7.59,-7.77,2.06,7.84,7.84,7.84
-7.62,-7.58,2.03,15.61,15.61,15.61
-7.62,-7.41,1.93,19.88,19.88,20.44
-7.84,-7.14,1.8,25.48,25.48,25.48
-8.48,-6.71,1.79,23.66,23.66,23.24
-8.71,-6.52,1.79,20.44,20.44,20.44
-9.27,-6.25,1.85,15.26,15.26,15.26
-9.6,-6.37,1.74,14.28,14.49,14.49
-9.69,-6.46,1.62,16.24,17.22,17.85
-9.6,-6.38,1.57,21.98,21.98,21.98
-9.54,-6.06,1.55,25.41,25.69,25.69
-9.47,-5.68,1.47,26.18,26.25,26.25
-9.56,-5.23,1.52,24.78,24.78,24.78
-9.7,-4.71,1.63,18.06,18.06,18.06
-9.94,-4.52,1.61,10.71,10.71,10.71
-10.14,-4.4,1.59,5.25,5.25,5.25
-11.15,-4.82,1.49,2.94,3.64,3.64
-11.2,-4.29,1.35,11.34,12.11,12.11
-11.33,-3.8,1.42,15.89,16.17,16.17
-11.12,-2.76,1.51,16.03,15.89,15.12
-10.81,-1.94,1.48,12.39,11.69,11.69
-10.57,-1.38,1.51,4.62,3.92,3.92
-10.69,-1.38,1.49,-0.28,-0.28,-0.28
-10.75,-1.36,1.48,-3.5,-3.5,-3.5
-10.41,-1.2,1.54,-3.5,-3.5,-3.5
-10.05,-0.73,1.48,-2.66,-2.52,-1.96
-9.67,-0.43,1.44,-0.56,-0.35,-0.35
-9.67,-0.11,1.47,1.61,1.82,1.82
-9.46,0.25,1.55,3.71,4.2,4.2
-8.93,0.7,1.51,5.88,6.58,6.58
-8.36,1.56,1.62,6.72,6.58,6.3
-7.86,2.43,1.7,3.08,3.08,3.08
-7.7,2.74,1.74,-1.75,-2.1,-2.1
-7.32,3.05,1.71,-3.57,-3.64,-3.64
-7.44,2.95,1.6,-3.15,-3.08,-2.87
-7.47,3.16,1.68,-0.28,-0.28,-0.28
-7.33,3.59,1.72,2.94,3.43,3.43
-7.22,4.19,1.67,6.16,6.3,6.3
-6.95,4.64,1.66,6.37,6.23,6.23
-7.03,5.03,1.7,4.27,4.2,4.2
-6.86,5.46,1.68,3.08,3.08,3.08
-6.48,5.91,1.72,1.61,1.61,1.47
-6.12,6.21,1.72,-0.42,-0.42,-0.91
-6.02,6.24,1.58,-1.33,-1.33,-1.33
-6.33,6.15,1.51,1.61,1.61,1.61
-6.12,6.59,1.46,7,7,7
-5.73,7.32,1.5,7.14,7.14,7
-5,7.77,1.55,3.85,3.85,3.85
-4.77,7.93,1.51,0.98,0.28,0.28
-4.6,7.89,1.54,-0.91,-0.91,-0.77
-4.63,8,1.53,-0.77,-0.77,-0.77
-4.37,8.28,1.57,-2.31,-2.31,-2.31
-3.88,8.53,1.51,-5.32,-5.67,-5.67
-3.61,8.7,1.55,-8.05,-9.31,-9.31
-3.29,8.69,1.53,-11.2,-11.48,-12.04
-3.06,8.53,1.57,-12.95,-13.02,-13.02
-2.56,8.42,1.57,-13.16,-13.02,-13.02
-2.12,8.39,1.58,-12.6,-12.6,-12.6
-1.61,8.41,1.67,-11.2,-11.2,-10.99
-0.96,8.36,1.65,-9.8,-9.24,-9.03
-0.2,8.41,1.78,-7.91,-7.91,-7.49
1.15,8.29,1.97,-4.69,-4.69,-4.69
1.81,8.26,2.1,-2.17,-2.17,-2.17
2.16,8.07,2.16,1.05,1.05,1.05
2.3,7.86,2.12,6.02,6.02,6.02
2.26,8.45,2.09,10.15,9.8,9.8
2.07,8.57,1.87,7.14,7.14,6.93
1.95,8.72,1.74,5.67,5.11,4.97
1.7,8.96,1.68,3.5,3.29,3.29
1.63,9.11,1.55,1.33,1.33,1.05
1.61,9.41,1.56,-0.56,-0.56,-0.91
1.45,9.49,1.52,-2.59,-2.59,-2.59
1.24,9.56,1.53,-3.92,-3.92,-3.92
1.24,9.6,1.53,-5.04,-5.04,-5.04
1.3,9.6,1.6,-5.81,-6.02,-6.02
1.24,9.38,1.57,-6.16,-6.16,-6.16
1.18,9.25,1.67,-5.6,-5.6,-5.46
1.08,9.13,1.75,-5.04,-5.04,-5.04
1.08,9.09,1.98,-5.81,-5.81,-5.81
0.95,8.93,2.1,-8.75,-8.75,-8.89
0.59,8.7,2.13,-9.94,-9.94,-9.94
0.13,8.44,2.21,-9.45,-9.45,-9.17
-0.23,8.23,2.22,-6.72,-6.72,-6.72
-0.31,8.32,2.33,-3.29,-3.29,-3.29
-0.78,8.58,2.36,-0.35,-0.07,-0.07
-1.11,8.47,2.3,1.54,2.38,2.38
-1.42,8.47,2.28,3.29,3.43,3.43
-1.61,8.77,2.3,2.24,1.96,0.84
-2.09,8.48,2.19,-4.69,-4.83,-4.83
-2.42,8.31,2.08,-4.2,-4.06,-4.06
-2.71,8.38,2.06,-4.06,-4.06,-4.06
-3.02,8.23,2.12,-4.34,-4.34,-4.34
-3.52,7.9,2.05,-3.22,-2.52,-2.52
-4.06,7.76,2.03,-0.56,-0.07,-0.07
-4.11,7.85,2.16,0.98,0.98,0.91
-4.21,8.01,2.09,-0.84,-0.84,-0.84
-4.16,8.09,2.12,-4.41,-4.41,-4.41
-4.54,7.81,2.21,-7.63,-7.63,-7.63
-4.77,7.55,2.16,-10.43,-10.43,-10.43
-5.4,7.1,2.15,-10.43,-10.08,-10.08
-5.96,6.72,2.12,-8.33,-7.35,-6.86
-6.08,6.56,2.11,-2.31,-2.31,-2.31
-5.77,6.99,2.19,-0.35,-0.56,-0.56
-5.82,7.06,2.21,-2.66,-3.15,-3.15
-6.22,6.48,2.05,-3.01,-3.01,-2.59
-6.87,5.95,1.99,0.42,1.68,2.24
-7.32,6.09,1.97,4.13,4.41,4.41
-7.94,6.07,1.85,-1.26,-1.54,-1.54
-7.7,6.2,1.91,-5.11,-5.11,-5.81
-7.7,6.09,1.99,-10.15,-11.9,-12.81
-7.98,5.47,2.05,-16.52,-16.52,-16.52
-8.26,4.75,2,-15.26,-14.77,-14.77
-7.99,4.61,2.02,-12.53,-11.41,-11.41
-7.7,4.51,2.11,-10.08,-9.66,-9.66
-7.9,4.32,2.12,-9.24,-9.24,-9.24
-8.19,3.87,2.07,-7.7,-7.49,-7.49
-8.59,3.51,2.01,-5.18,-4.69,-4.69
-8.62,3.28,1.97,-1.68,-1.19,-1.19
-8.6,3.11,1.89,0.84,1.26,1.26
-8.76,3.19,1.89,1.61,1.61,1.61
-9.24,3.06,1.89,0.77,0.42,0.49
-9.68,2.74,1.76,0.7,0.7,0.7
-9.71,2.79,1.7,1.19,1.19,1.19
-9.94,2.73,1.57,-0.49,-0.77,-0.77
-10.04,2.67,1.61,-3.36,-3.36,-3.36
-10.41,2.18,1.57,-6.3,-6.3,-6.3
-10.86,1.59,1.51,-4.13,-4.13,-4.13
-10.92,1.35,1.56,-0.63,-0.63,-0.63
-10.48,1.76,1.75,-0.77,-0.77,-0.77
-9.94,2.03,1.82,-3.99,-5.32,-5.32
-9.73,1.9,1.87,-9.73,-11.13,-11.13
-10.04,1.39,1.92,-14.84,-14.84,-14.84
-10.23,0.89,1.94,-15.4,-15.4,-15.4
-10.25,0.57,1.94,-14.14,-13.44,-13.44
-9.9,0.36,1.84,-10.85,-10.85,-10.01
-9.79,0.17,1.81,-7.28,-7.28,-6.93
-9.57,0.2,1.7,-4.69,-4.69,-4.69
-9.52,0.07,1.7,-4.76,-4.97,-4.97
-9.51,-0.22,1.65,-5.74,-5.74,-5.67
-9.88,-0.65,1.51,-4.55,-4.55,-4.55
-10.06,-0.98,1.42,0,0,0
-9.98,-0.94,1.48,2.66,2.8,2.8
-9.9,-0.83,1.42,3.57,3.5,3.5
-9.84,-0.85,1.42,1.96,1.96,1.54
-10.05,-0.9,1.38,0,-0.21,-0.21
-10.12,-1,1.34,-3.29,-3.29,-3.29
-9.94,-1.04,1.29,-7.49,-7.49,-7.49
-9.77,-1.2,1.22,-9.94,-10.64,-10.64
-9.66,-1.43,1.23,-11.83,-12.04,-12.04
-9.52,-1.84,1.19,-11.97,-11.97,-11.97
-9.49,-2.09,1.15,-11.13,-11.13,-11.13
-9.49,-2.37,1.17,-10.08,-10.08,-10.08
-9.54,-2.72,1.24,-8.26,-8.26,-8.26
-9.5,-3.12,1.26,-5.11,-5.11,-5.11
-9.27,-3.18,1.24,-2.59,-2.59,-2.59
-9.11,-3.12,1.23,-2.17,-2.52,-2.52
-9.09,-3.19,1.28,-3.64,-3.64,-3.64
-9.08,-3.37,1.31,-5.81,-5.81,-5.81
-9.05,-3.55,1.28,-7.84,-7.84,-7.84
-9.26,-3.86,1.26,-8.82,-8.82,-8.82
-9.46,-4.3,1.28,-8.68,-8.68,-8.54
-9.54,-4.76,1.25,-6.02,-6.02,-5.67
-9.56,-4.72,1.32,-4.06,-4.06,-3.64
-9.45,-4.72,1.4,-2.87,-2.87,-2.59
-9.29,-4.77,1.42,-2.59,-2.59,-2.59
-9.15,-4.86,1.45,-2.52,-2.52,-2.45
-8.98,-5,1.47,-2.03,-2.03,-2.03
-8.67,-5.13,1.45,-0.84,-0.84,-0.84
-8.44,-5.16,1.46,17.85,0,0
-8.41,-5.3,1.43,0.07,0.07,0.07
-8.61,-5.65,1.41,0.35,0.56,0.56
-8.72,-6.03,1.33,2.31,2.31,2.31
-8.77,-6.41,1.25,6.09,6.09,6.09
-8.95,-6.37,1.31,8.33,8.47,8.47
-9.11,-6.15,1.46,7.84,7.49,7.49
-9.13,-6.09,1.53,6.3,5.74,5.6
-8.96,-5.86,1.57,4.06,4.06,4.06
-8.73,-5.67,1.6,1.33,1.19,1.19
-8.4,-5.65,1.53,-0.21,-0.35,-0.35
-8.27,-5.75,1.45,-0.28,-0.28,0
-8.32,-5.97,1.4,1.4,1.4,1.82
-8.36,-6.11,1.37,5.04,5.04,5.04
-8.37,-6.25,1.38,7.14,7.56,7.56
-8.41,-6.26,1.47,10.01,10.01,10.15
-8.48,-6.24,1.47,11.41,11.41,11.76
-8.73,-6.3,1.5,12.39,12.39,12.39
-8.99,-6.28,1.52,12.32,12.32,12.32
-9.21,-6.13,1.56,11.9,11.69,11.69
-9.34,-5.99,1.56,10.36,9.94,9.94
-9.48,-5.82,1.56,8.4,8.4,7.98
-9.83,-5.66,1.61,8.33,8.68,8.68
-9.96,-5.11,1.75,14.14,14.35,14.35
-9.96,-5.02,1.73,16.66,16.94,16.94
-9.99,-4.98,1.67,19.18,19.18,19.53
-9.9,-4.76,1.69,20.51,20.51,20.51
-9.85,-4.52,1.77,20.3,20.3,19.74
-9.73,-4.24,1.76,18.9,18.9,18.69
-9.63,-3.79,1.79,16.24,16.24,15.96
-9.58,-3.54,1.76,14.07,13.37,13.09
-9.71,-3.41,1.77,11.41,11.41,11.41
-9.82,-3.22,1.78,10.92,10.92,10.92
-10,-3.01,1.74,11.34,11.27,11.27
-10.26,-2.77,1.6,12.67,12.67,12.88
-10.47,-2.41,1.53,13.72,13.79,13.79
-10.48,-1.93,1.48,13.23,13.23,13.02
-10.52,-1.33,1.5,11.06,10.29,10.29
-10.75,-1.02,1.42,7.35,6.23,6.23
-10.66,-0.66,1.27,3.99,3.99,3.43
-10.53,-0.25,1.18,2.1,2.1,2.1
-10.64,0.13,1.13,0.28,0.28,0.28
-10.25,0.73,1.19,-2.59,-2.87,-2.87
-10,1.03,1.2,-4.27,-4.83,-4.83
-9.83,1.3,1.14,-5.25,-5.25,-5.25
-9.65,1.44,1.13,-4.34,-4.34,-4.34
-9.47,1.69,1.13,-3.29,-2.8,-2.8
-9.13,2.03,1.16,-1.05,-1.05,-0.84
-8.72,2.38,1.27,-0.14,-0.14,-0.14
-8.54,2.71,1.31,-1.61,-2.17,-2.17
-8.04,3.18,1.42,-3.5,-4.06,-4.06
-7.69,3.48,1.42,-5.11,-5.46,-5.46
-7.47,3.61,1.41,-5.74,-5.74,-5.6
-7.16,3.8,1.47,-4.06,-4.06,-4.06
-7.13,3.92,1.53,-0.56,-0.21,-0.21
-7.08,4.32,1.65,1.75,1.89,1.89
-7.06,4.88,1.78,2.94,2.94,2.94
-6.86,5.23,1.68,3.15,3.15,3.08
-6.57,5.8,1.73,1.89,1.89,1.82
-6.4,6.02,1.63,0.07,0.07,0.07
-6.62,6.18,1.58,-2.17,-2.24,-2.24
-6.81,6.25,1.57,-2.38,-2.17,-2.17
-6.68,6.57,1.56,-1.54,-1.4,-1.4
-6.51,6.76,1.54,-1.19,-1.26,-1.26
-6.39,7.06,1.51,-1.68,-1.54,-1.54
-5.98,7.4,1.53,-2.03,-2.03,-2.03
-5.6,7.56,1.56,-3.36,-3.36,-3.36
-5.28,7.72,1.57,-4.41,-4.55,-4.55
-4.98,7.78,1.64,-5.04,-5.04,-5.04
-4.81,7.75,1.64,-4.69,-4.41,-4.41
-4.58,7.91,1.66,-3.15,-3.08,-3.08
-3.49,8.27,1.71,-6.23,-6.23,-6.16
-3.32,8.26,1.8,-6.09,-6.09,-6.16
-3.13,8.24,1.92,-5.53,-5.53,-5.53
-2.7,8.29,1.95,-3.85,-3.85,-3.85
-2.32,8.34,1.95,-1.75,-1.75,-1.75
-2.13,8.36,1.88,0.98,1.26,1.26
-1.75,8.56,1.85,2.73,2.87,2.87
-1.65,8.78,1.9,3.15,3.15,3.01
-1.48,8.88,1.88,3.15,3.15,3.22
-1.35,8.96,1.9,3.29,3.29,3.29
-1.01,9.09,1.92,2.45,2.45,2.45
-0.61,9.23,1.96,0.84,0.84,0.84
-0.37,9.24,2,-2.59,-2.59,-2.59
0.47,8.66,2.09,-0.42,-0.07,-0.07
0.8,8.69,2.25,1.68,1.68,1.82
1.37,8.58,2.26,2.66,2.66,2.66
1.85,8.55,2.23,4.27,4.27,4.27
2.27,8.64,2.21,4.41,4.13,4.13
2.43,8.62,2.24,2.59,2.59,2.31
2.58,8.45,2.15,1.68,1.68,1.68
2.57,8.47,2.13,0.98,0.84,0.49
2.33,8.37,1.89,0.07,0.07,0.07
2.21,8.42,1.81,0.49,0.49,0.49
1.98,8.58,1.74,0.56,0.49,0.56
1.8,8.68,1.64,0.7,0.84,1.05
1.54,8.72,1.57,1.75,1.82,2.17
1.38,8.81,1.55,2.73,2.94,2.94
1.34,9.17,1.63,2.03,1.68,1.68
1.35,9.29,1.67,-0.07,-0.56,-1.26
1.23,9.24,1.8,-3.99,-3.99,-4.2
0.85,8.92,1.81,-4.69,-4.69,-4.69
0.56,8.76,1.83,-3.64,-3.64,-3.64
0.29,8.89,1.94,-3.22,-3.22,-3.22
-0.08,8.97,2.03,-3.78,-3.78,-3.78
-0.48,8.88,2.09,-4.13,-4.13,-4.13
-0.87,8.6,2.03,-2.66,-2.38,-2.38
-1.1,8.55,2.14,-0.98,-0.98,-0.84
-1.34,8.59,2.17,-0.07,0.07,0.07
-1.67,8.54,2.15,0.63,1.12,1.12
-2.22,8.24,2.11,2.31,2.52,3.22
-2.56,8.24,2.18,4.2,4.2,4.06
-2.71,8.53,2.23,3.29,2.52,2.1
-3.04,8.65,2.23,-0.49,-0.49,-1.96
-3.43,8.37,2.08,-3.99,-3.99,-3.99
-3.65,8.13,1.99,-3.36,-3.36,-3.36
-3.8,8.07,2.04,-2.87,-2.87,-2.87
-4.87,7.83,1.95,-1.96,-1.96,-1.96
-5.09,7.79,1.9,0.7,0.7,0.7
-5.04,8.17,1.98,0.77,0.42,0.42
-5.12,8.29,2.04,-2.03,-3.01,-3.01
-5.42,7.88,1.84,-4.55,-4.55,-4.48
-5.25,7.6,1.81,-3.08,-2.94,-2.94
-5.41,7.64,1.89,-3.64,-4.13,-4.13
-5.38,7.55,2.04,-7.63,-8.89,-9.31
-5.96,6.84,2.05,-11.13,-11.13,-11.13
-6.16,6.22,1.96,-7.28,-6.51,-6.51
-6.16,6.04,1.98,-3.29,-2.45,-2.03
-6.49,6.06,2.06,-1.61,-1.61,-1.61
-6.64,5.97,2.06,-2.03,-2.03,-1.89
-6.86,5.71,2.01,-1.33,-1.33,-1.33
-7.14,5.52,2.09,-1.61,-1.89,-1.89
-7.37,5.27,2.29,-4.34,-4.34,-4.34
-7.33,5.17,2.28,-5.95,-5.95,-5.95
-7.15,4.99,2.28,-7.7,-7.7,-7.98
-7.11,4.98,2.26,-10.5,-10.5,-10.99
-7.26,4.68,2.27,-14.07,-14.07,-14.56
-7.48,4.37,2.18,-16.66,-16.66,-16.66
-7.87,3.77,2.07,-15.05,-15.05,-14.14
-8.47,3.16,2.01,-10.57,-10.57,-10.57
-9.08,2.75,2.01,-5.04,-5.04,-5.04
-9.42,2.51,1.93,0,0,0
-9.36,2.6,1.94,3.71,3.71,3.71
-9.47,2.65,1.9,3.92,3.5,3.5
-9.54,2.7,2.01,1.12,1.12,1.12
-9.56,2.38,1.95,-3.71,-3.71,-3.71
-9.9,1.85,1.86,-7.98,-7.98,-8.05
-9.71,1.74,2,-10.36,-10.36,-10.36
-9.89,1.4,2,-13.3,-13.3,-13.3
-9.96,0.89,1.93,-14.14,-13.93,-13.93
-10.11,0.33,1.82,-10.78,-10.29,-10.29
-10.01,0.41,1.88,-8.68,-8.61,-8.61
-10.22,0.11,1.89,-9.31,-9.45,-9.45
-10.23,-0.1,1.77,-11.2,-11.2,-11.2
-10.14,-0.37,1.75,-11.41,-11.41,-11.27
-10.07,-0.56,1.81,-11.69,-11.69,-11.69
-10.05,-1.31,1.8,-11.83,-11.83,-11.83
-10.01,-1.59,1.73,-9.73,-9.73,-9.73
-10.1,-1.89,1.85,-8.47,-8.47,-8.47
-10.15,-2.15,1.91,-7.56,-7.49,-7.49
-10.21,-2.44,1.91,-6.65,-5.88,-5.88
-10.06,-2.7,1.8,-3.99,-3.71,-2.8
-9.95,-2.74,1.78,-0.98,-0.77,-0.77
-9.85,-2.72,1.82,0.35,0.35,0.28
-9.89,-2.82,1.81,0.42,0.42,0.42
-9.94,-2.93,1.7,0.7,0.7,0.77
-9.84,-3.07,1.61,1.12,1.19,1.12
-9.93,-3.2,1.65,0.14,0.14,0.14
-10.18,-3.54,1.65,-1.61,-1.61,-1.61
-9.32,-3.93,1.42,-4.9,-5.32,-5.32
-9.08,-3.95,1.45,-9.38,-9.38,-11.27
-9.08,-4.24,1.51,-13.65,-13.65,-14.14
-9,-4.93,1.29,-14.21,-14.21,-14
-8.93,-5.27,1.2,-12.32,-12.32,-12.18
-8.87,-5.38,1.22,-11.06,-11.06,-10.99
-8.65,-5.5,1.23,-10.71,-10.78,-10.85
-8.33,-5.47,1.25,-11.83,-11.83,-12.04
-8.11,-5.52,1.29,-13.79,-13.79,-14.07
-8.15,-5.65,1.38,-15.61,-15.61,-15.61
-8.14,-5.92,1.42,-15.33,-14.98,-14.7
-8.1,-6.15,1.52,-12.95,-12.67,-12.67
-8.09,-6.37,1.63,-10.29,-9.73,-9.73
-8.11,-6.53,1.75,-7.28,-7.28,-7
-8.21,-6.58,1.74,-6.09,-5.67,-5.46
-8.13,-6.59,1.84,-4.41,-4.41,-4.41
-8.25,-6.77,2.01,-3.64,-3.71,-3.71
-8.39,-6.81,2.04,-3.43,-3.22,-3.08
-8.37,-6.79,2.09,-1.96,-1.96,-1.96
-8.32,-6.74,2.28,-1.33,-1.33,-1.33
-8.38,-6.87,2.32,0,0.35,0.35
-8.21,-7.01,2.29,3.15,3.64,3.64
-8.22,-7.07,2.36,6.3,6.3,6.3
-8.39,-7.08,2.34,10.08,10.08,11.13
-8.42,-7.19,2.28,15.89,15.89,16.59
-8.65,-7.13,2.33,22.26,22.26,22.26
-8.81,-6.89,2.31,25.69,25.69,25.69
-8.96,-6.74,2.25,29.12,29.12,29.12
-9.3,-6.47,2.27,29.61,29.61,29.61
-9.53,-6.32,2.13,29.54,29.54,29.54
-9.56,-6.09,1.98,30.1,30.31,30.31
-9.68,-5.85,1.95,30.1,29.96,29.96
-9.6,-5.39,1.92,28.56,28.35,28.35
-9.44,-4.99,1.8,25.13,25.13,24.64
-9.51,-4.69,1.86,22.47,21.63,21.63
-9.54,-4.54,1.82,18.55,18.55,18.55
-9.64,-4.4,1.8,15.33,15.19,15.19
-9.86,-4.51,1.83,14.35,14.35,14.35
-10.01,-4.52,1.67,15.82,15.82,15.96
-10.17,-4.25,1.65,17.29,17.71,17.85
-10.37,-3.68,1.69,17.92,17.92,17.92
-10.61,-3.25,1.72,15.82,15.54,15.54
-10.62,-2.77,1.71,13.58,13.58,13.58
-10.68,-2.39,1.73,10.64,10.64,9.8
-10.83,-1.95,1.73,6.37,5.81,5.81
-10.85,-1.72,1.73,2.17,2.17,1.89
-10.93,-1.48,1.7,0.49,0.49,0.35
-10.73,-1.28,1.64,0.77,0.77,0.84
-10.58,-1,1.68,2.1,2.1,2.1
-10.46,-0.66,1.67,2.8,3.29,3.29
-10.22,-0.45,1.66,4.76,5.11,5.11
-9.94,-0.14,1.61,9.45,9.45,10.08
-9.75,0.25,1.69,12.25,12.25,12.39
-9.55,1.24,1.8,12.81,12.81,12.6
-9.24,1.57,1.82,10.22,10.22,9.66
-8.9,2.23,1.93,7.35,6.44,6.44
-8.86,2.38,1.82,4.69,4.69,4.41
-8.55,2.95,1.83,5.53,5.53,5.53
-8.23,3.69,1.87,5.04,5.04,5.04
-8.08,3.87,1.85,2.45,2.45,2.45
-7.7,4.16,1.85,1.19,1.12,1.12
-7.61,4.25,1.79,0.84,0.84,0.63
-7.32,4.49,1.88,0.42,0.42,0.42
-6.89,4.77,1.92,1.05,1.82,1.82
-6.35,5.08,1.93,2.59,2.8,3.01
-5.81,5.38,1.99,3.5,3.36,3.36
-5.5,5.54,1.97,3.92,4.06,4.27
-5.15,5.92,2.01,4.9,5.04,5.04
-4.84,6.15,2.04,6.09,6.3,6.3
-4.89,6.82,1.89,14,14.07,14.21
-4.63,7.41,1.84,13.93,13.93,13.93
-4.5,7.76,1.76,11.62,11.62,11.62
-4.04,8.28,1.51,5.04,5.04,5.04
-3.81,8.54,1.48,1.75,1.33,1.33
-3.53,8.59,1.4,-2.73,-2.73,-3.01
-2.52,8.72,1.52,-8.4,-8.4,-9.31
-2.19,8.72,1.64,-11.27,-11.27,-11.27
-1.9,8.52,1.82,-13.3,-13.3,-13.3
-1.5,8.43,1.87,-12.88,-12.88,-12.46
-1.21,8.36,1.99,-10.08,-10.08,-10.08
-1.01,8.37,2.03,-7.63,-7.63,-7.63
-0.71,8.39,2.12,-4.27,-4.27,-4.27
-0.42,8.46,2.19,0.77,0.77,0.77
-0.17,8.59,2.17,3.71,4.55,4.55
0.04,8.83,2.18,6.23,6.23,6.3
0.25,9.01,2.23,6.51,6.51,6.51
0.33,9.11,2.16,5.88,5.88,5.88
0.3,9.04,2.1,5.32,5.32,5.32
0.32,9,2.05,5.46,5.6,5.6
0.34,9.12,2.1,4.76,4.76,4.34
0.47,9.26,2.12,2.52,2.1,2.1
0.64,9.19,2.12,-1.33,-1.68,-1.68
0.77,9.04,2.08,-2.94,-3.01,-3.01
0.82,8.93,2.02,-3.57,-3.57,-3.57
0.88,8.94,1.94,-4.2,-4.2,-4.2
1.11,9.01,1.88,-5.53,-5.53,-5.6
1.33,9.08,1.88,-7.56,-7.56,-7.56
1.24,9,1.9,-8.26,-8.33,-8.33
1.19,8.94,1.91,-7.77,-7.77,-7.84
1.23,8.96,1.97,-7.14,-7.14,-7
1.23,9,2.1,-6.86,-6.86,-6.86
1.03,9.07,2.16,-6.93,-6.93,-6.93
0.84,9.04,2.21,-6.44,-6.44,-6.44
0.63,8.85,2.3,-5.11,-5.11,-4.9
0.36,8.7,2.37,-1.12,-1.12,-1.12
0.13,8.63,2.37,1.47,2.24,2.24
-0.07,8.94,2.41,3.5,3.5,3.5
-0.17,9.03,2.38,2.31,2.31,2.31
-1.37,8.66,2.23,7.07,7.42,7.42
-1.63,8.78,2.2,9.1,9.1,9.17
-1.9,8.93,2.15,9.03,9.03,9.03
-2.26,8.99,2.07,8.26,8.05,8.05
-2.63,8.9,1.93,7.07,7.07,7.07
-2.62,9.04,1.9,4.83,3.57,3.57
-2.79,8.87,1.92,0.49,0.49,0.49
-3.06,8.52,1.88,-0.77,-0.7,-0.7
-3.21,8.31,1.83,1.61,1.61,1.82
-3.33,8.29,1.84,3.29,3.71,3.71
-3.31,8.41,1.9,4.2,4.06,4.06
-3.55,8.24,1.84,4.2,4.27,4.27
-3.92,8.1,1.76,5.53,5.74,5.74
-4.28,8.04,1.72,6.72,6.93,6.93
-4.7,8.09,1.63,7.63,7.77,7.77
-4.97,8.18,1.66,7,7,7
-5.26,8.16,1.59,5.18,5.18,4.9
-5.55,8.03,1.61,2.24,2.24,2.1
-5.9,7.88,1.54,0.91,0.91,0.91
-5.93,7.84,1.54,0.56,0.56,0.42
-5.71,8.1,1.56,-2.31,-2.31,-2.31
-5.51,8.08,1.59,-7.21,-7.21,-7.21
-5.66,7.61,1.61,-12.18,-12.18,-12.18
-6.26,6.41,1.54,-3.15,-3.15,-2.38
-5.98,6.71,1.68,-3.64,-3.85,-3.85
-6.19,6.44,1.65,-6.3,-6.51,-6.51
-6.52,-7.4,0.62,0.35,0.35,0.35
-6.47,-7.38,0.52,1.47,1.47,1.47
-6.53,-7.23,0.64,2.24,2.24,2.24
-6.58,-7.09,0.78,1.26,1.26,1.05
-6.51,-6.85,0.75,-1.54,-1.54,-1.54
-6.52,-7.05,0.78,-3.64,-4.2,-4.2
-6.61,-7.4,0.65,-4.69,-4.69,-4.69
-6.66,-7.37,0.65,-2.94,-2.8,-2.8
-6.68,-7.63,0.54,1.47,1.47,1.89
-6.58,-7.6,0.55,4.97,5.53,5.53
-6.64,-7.21,0.73,5.25,5.25,4.9
-6.59,-6.98,0.77,2.52,2.52,2.52
-6.51,-7.02,0.71,0.14,0.14,0.14
-6.51,-7.01,0.79,-1.82,-2.1,-2.1
-6.52,-7.36,0.74,-2.8,-2.8,-2.8
-6.48,-7.48,0.63,-2.03,-2.03,-2.03
-6.41,-7.52,0.67,-0.42,-0.07,-0.07
-6.37,-7.64,0.69,0.91,1.05,1.05
-6.47,-7.62,0.58,1.54,1.68,1.68
-6.52,-7.48,0.63,1.89,1.89,1.96
-6.52,-7.54,0.74,1.96,1.96,1.96
-6.57,-7.51,0.67,1.89,1.89,1.89
-6.56,-7.27,0.65,1.75,1.75,1.75
-6.58,-7.27,0.7,1.19,1.19,1.12
-6.6,-7.2,0.74,-0.49,-0.49,-0.49
-6.59,-7.1,0.79,-2.17,-2.17,-2.17
-6.58,-7.28,0.72,-3.43,-3.43,-3.43
-6.59,-7.59,0.65,-3.22,-2.66,-2.66
-6.57,-7.7,0.58,-1.26,-1.26,-0.77
-6.54,-7.59,0.55,1.26,1.26,1.26
-6.51,-7.53,0.61,1.68,1.68,1.47
-6.43,-7.41,0.64,0.28,0.28,0.28
-6.35,-7.3,0.63,-1.05,-1.47,-1.47
-6.39,-7.37,0.64,-2.94,-2.94,-2.94
-6.47,-7.36,0.72,-4.06,-4.2,-4.2
-6.43,-7.41,0.67,-3.78,-3.78,-3.43
-6.39,-7.35,0.63,-2.73,-2.73,-2.73
-6.33,-7.15,0.77,-1.96,-1.96,-1.82
-6.28,-7.13,0.81,-1.96,-2.1,-2.1
-6.29,-7.33,0.68,-2.8,-2.8,-2.8
-6.2,-7.43,0.75,-0.91,-0.91,-0.91
-6.04,-7.61,0.7,1.82,1.82,3.29
-5.94,-7.26,0.64,6.09,6.09,6.09
-5.87,-7.46,0.65,7.77,7.77,7.77
-6.34,-7.78,0.67,13.23,14.07,14.07
-6.67,-8.09,0.56,17.08,17.08,18.06
-7.13,-8.21,0.51,20.72,20.72,20.72
-7.57,-8.6,0.62,27.16,27.16,28.21
-8.19,-8.7,0.6,32.9,32.9,32.9
-8.93,-8.14,0.88,31.78,31.29,31.29
-9.2,-7.53,1.37,26.88,26.39,26.39
-9.57,-7.66,1.54,21.7,21,21
-9.98,-7.92,1.49,16.94,14.98,14.98
-9.93,-7.82,1.46,13.44,13.44,13.44
-10.08,-6.82,1.72,11.62,11.62,11.62
-10.18,-6.23,1.84,5.04,5.04,5.04
-10.15,-5.82,1.7,1.89,1.89,1.75
-10.36,-6.16,1.53,3.01,3.64,3.64
-10.64,-6.7,1.49,8.19,9.03,9.03
-10.8,-6.51,1.37,14.7,14.7,14.7
-10.84,-5.95,1.19,20.02,20.23,20.23
-10.69,-5.77,1.06,20.93,21.28,21.28
-10.49,-5.35,0.96,21.28,21.28,21.28
-9.62,-5.12,0.62,21.91,22.47,22.47
-9.46,-5.08,0.61,24.57,24.92,24.92
-9.29,-4.14,0.77,27.86,27.86,28.21
-9.08,-3.8,0.87,27.65,27.65,27.51
-8.89,-3.97,0.69,29.82,29.82,29.82
-8.65,-3.39,0.66,35.21,36.4,36.4
-8.6,-2.31,1.09,35.14,35.14,35.14
-8.61,-2.19,1.23,30.31,30.31,30.31
-8.48,-1.62,1.18,30.17,30.17,30.17
-8.18,-0.92,1.34,27.16,27.16,25.62
-8.32,-0.21,1.59,18.2,18.2,18.2
-8.32,0.59,1.54,12.32,11.9,11.9
-8.17,0.33,1.34,11.34,11.83,12.04
-8.42,0.28,1.64,13.79,13.79,14.63
-8.51,1.29,1.82,15.19,15.19,15.12
-8.22,1.91,1.67,13.51,12.95,12.95
-7.94,2.37,1.77,10.36,10.36,10.08
-7.94,2.74,1.9,8.33,8.33,7.98
-7.88,3.01,1.73,5.88,5.88,5.88
-7.77,2.74,1.65,7.49,7.49,7.49
-7.73,2.94,1.74,11.06,11.06,11.06
-7.8,3.62,1.68,10.99,10.99,10.99
-7.52,4.08,1.68,9.52,9.52,9.52
-7.7,4.3,1.71,7.56,7.56,7.56
-7.6,4.58,1.65,4.55,4.55,4.2
-7.37,4.81,1.56,2.03,2.03,2.03
-7.11,5.04,1.67,1.68,1.68,1.68
-6.98,4.91,1.65,3.01,3.01,3.01
-6.77,5.47,1.67,4.06,4.13,4.13
-6.53,5.85,1.96,3.71,3.64,3.22
-6.4,6.16,1.98,2.66,2.38,2.38
-6.11,6.49,2.03,-0.63,-0.63,-1.26
-6.07,6.47,2.13,-2.94,-2.94,-2.94
-5.95,6.09,1.95,0.28,0.28,0.28
-5.64,6.54,2.01,3.36,3.36,3.36
-5.77,6.84,2.18,3.15,3.15,3.15
-5.52,6.81,2.11,5.53,5.81,5.81
-5.29,6.76,2.12,6.37,6.37,6.37
-5.43,6.84,2.12,6.86,7.07,7.21
-5.53,6.92,2.08,7.42,7.42,7
-5.54,7.14,2.12,5.11,4.83,4.83
-5.41,7.16,2.18,3.36,3.36,3.08
-5.68,7.12,2.14,1.19,0.21,0.21
-6,6.83,2.01,-2.17,-2.17,-2.24
-5.81,6.79,2.1,-2.45,-2.45,-2.45
-5.88,6.98,2.1,-2.87,-2.87,-2.87
-6.09,6.83,2.2,-4.34,-4.34,-4.34
-6.08,6.94,2.45,-4.34,-4.41,-4.41
-5.84,6.94,2.4,-4.55,-3.71,-3.71
-5.68,6.52,2.14,-0.21,2.38,2.38
-5.51,6.76,2.2,4.97,5.46,5.46
-5.11,7.12,2.17,5.25,5.25,5.25
-5.09,7.16,2.1,5.6,5.53,5.53
-5.23,7.21,2.1,4.2,4.2,3.99
-5.12,7.17,2.11,0,0,-1.05
-5.13,6.79,2.02,-8.47,-8.47,-8.47
-5.1,5.83,1.8,-5.04,-3.85,-3.85
-5.61,5.96,1.81,1.61,1.61,1.89
-6.08,6.29,1.98,-3.85,-3.85,-4.69
-6.04,5.74,1.78,-7.14,-7.14,-7.07
-6.07,5.32,1.76,-5.67,-5.25,-4.9
-6.71,5.92,1.99,-7.35,-7.35,-11.41
-7.25,5.49,2.21,-19.46,-19.46,-20.51
-7.18,4.05,1.69,-22.47,-22.47,-21.84
-8.63,4.02,1.78,-13.23,-13.23,-13.86
-9.22,3.49,1.8,-13.93,-13.93,-13.93
-9.5,3.74,1.85,-11.06,-11.06,-11.06
-9.27,3.92,1.81,-12.25,-12.74,-12.74
-9.14,3.72,1.69,-15.05,-15.05,-15.82
-9.49,2.82,1.76,-15.4,-14.07,-14.07
-8.95,3.02,1.95,-11.27,-11.27,-11.48
-8.76,2.78,1.95,-13.58,-13.58,-13.58
-9.02,2.1,1.91,-13.65,-12.88,-12.88
-8.85,1.25,2.08,-4.27,-4.27,-2.59
-8.35,2.67,2.12,4.62,4.62,4.34
-8.42,3.09,2.45,-8.19,-12.81,-12.81
-8.8,1.11,2.05,-12.18,-12.18,-12.18
-8.42,2.44,2.3,-12.39,-14.21,-14.21
-8.63,1.75,2.32,-26.11,-30.87,-32.97
-9.05,0.02,1.82,-36.89,-35.56,-34.3
-9.31,-0.51,1.76,-25.55,-25.55,-19.11
-9.12,-0.51,1.95,-11.55,-11.55,-10.78
-9.61,-0.55,1.83,-14.21,-14.21,-14.84
-10.19,-0.76,1.53,-14.84,-14.21,-14.21
-10.36,-0.48,1.53,-5.04,-5.04,-4.13
-10.21,-0.33,1.74,-3.78,-3.78,-3.78
-10.66,-0.53,1.6,-10.57,-10.57,-12.6
-11.04,-0.76,1.27,-12.32,-12.32,-11.76
-10.86,-1.39,1.35,-4.62,-4.62,-4.62
-10.86,-1.87,1.59,-3.01,-3.01,-2.8
-10.55,-1.54,1.4,-0.42,-0.42,-0.42
-9.96,-0.65,1.52,2.59,2.59,1.89
-9.9,-1.21,1.8,-6.02,-6.02,-6.02
-9.93,-2.17,1.63,-18.62,-18.62,-18.62
-9.77,-2.57,1.53,-16.94,-16.94,-16.94
-9.28,-2.15,1.67,-8.33,-7.84,-7.84
-9.31,-2.15,1.91,-12.53,-14.07,-14.07
-11.03,-3.09,1.57,-22.12,-22.12,-22.12
-9.93,-4.23,1.59,-10.01,-10.01,-7.84
-9.71,-3.47,1.83,1.61,3.36,3.71
-9.65,-2.89,1.92,-1.82,-1.82,-3.29
-9.93,-3.53,1.6,-8.89,-8.89,-8.96
-9.76,-4.22,1.5,-0.77,-0.77,-0.77
-9.43,-3.54,1.67,6.93,6.93,6.93
-9.49,-2.79,1.94,-3.36,-5.11,-5.11
-9.24,-2.7,1.9,-13.72,-14.49,-14.49
-8.81,-3.48,1.86,-14.77,-14.77,-13.65
-8.75,-4.27,1.81,-11.76,-11.76,-11.55
-8.97,-4.76,1.87,-10.01,-9.52,-9.52
-8.74,-4.7,1.88,-6.02,-4.62,-3.85
-8.48,-5.21,1.96,-2.1,-2.1,-2.1
-8.72,-5.64,1.84,-4.62,-4.62,-4.62
-8.51,-5.65,1.69,-3.29,-2.73,-2.73
-8.24,-5.11,1.75,0.21,0.21,0.14
-8.04,-4.56,1.91,-3.5,-3.5,-3.5
-8.09,-4.69,1.87,-14.14,-14.14,-14.14
-7.95,-5.58,1.74,-8.12,-8.12,-8.12
-8.45,-6.39,1.75,-5.04,-5.04,-5.04
-8.72,-6.44,1.6,-3.92,-3.92,-3.92
-8.71,-6.26,1.6,-1.96,-1.96,-1.96
-8.6,-5.8,1.87,-0.56,-0.84,-0.84
-8.61,-5.8,1.79,-5.74,-6.58,-6.58
-8.54,-5.75,1.65,-11.06,-11.48,-11.48
-8.28,-5.76,1.87,-11.27,-11.27,-11.13
-8.16,-6.4,1.95,-10.64,-10.71,-10.57
-8.09,-6.89,1.79,-9.94,-9.1,-9.1
-7.76,-6.99,1.66,-5.88,-4.48,-3.85
-7.5,-6.64,1.92,-1.4,-1.4,-0.63
-7.26,-6.82,2.14,-1.26,-2.03,-2.31
-7.15,-7.12,1.95,-3.78,-3.78,-3.78
-6.95,-7.05,1.9,-1.19,-0.7,-0.7
-6.77,-6.84,2.02,1.68,1.75,1.75
-6.79,-6.66,2.01,1.47,1.26,1.26
-6.92,-6.37,1.97,-2.1,-2.59,-2.59
-6.93,-6.48,2.1,-6.09,-6.09,-6.3
-6.95,-6.79,1.91,-6.23,-6.23,-6.23
-7.15,-6.98,1.88,-5.88,-5.74,-5.53
-7.25,-7.11,1.97,-4.34,-4.34,-4.13
-7.21,-7.51,1.92,0.35,0.35,0.91
-7.21,-7.46,1.84,3.71,3.71,3.99
-7.16,-7.21,1.94,4.48,4.48,4.55
-7.02,-7.24,1.94,3.99,3.99,3.99
-6.93,-7.18,1.72,3.08,2.66,2.66
-6.87,-6.72,1.81,0.21,-0.21,-0.21
-6.7,-6.78,1.79,-2.94,-3.22,-3.22
-6.56,-6.85,1.71,-4.48,-4.9,-4.9
-6.42,-7,1.73,-4.76,-4.76,-4.76
-6.32,-7.14,1.78,-3.01,-3.01,-2.66
-6.15,-7.02,1.73,-0.42,-0.42,-0.42
-6.1,-7.31,1.68,0.84,1.26,1.26
-6.22,-7.18,1.47,3.08,3.08,3.08
-6.4,-6.99,1.92,1.54,0.28,0.28
-6.5,-6.94,2.03,-2.17,-2.59,-3.43
-6.55,-7.51,1.95,-5.11,-5.11,-5.11
-7.77,-8.17,2.38,11.69,11.69,11.69
-8.19,-8.04,2.65,11.27,11.27,11.27
-8.45,-7.83,2.65,9.73,9.73,9.73
-8.5,-7.64,2.68,8.68,8.68,8.68
-8.59,-7.5,2.66,8.82,8.82,8.82
-8.81,-7.32,2.49,9.24,9.24,9.24
-8.78,-7.08,2.4,9.45,9.45,9.45
-8.77,-7.45,2.42,13.23,13.23,13.23
-8.97,-7.34,2.28,16.94,17.57,17.57
-8.97,-7.38,2.21,20.65,21.35,21.35
-8.99,-7.03,2,28.42,28.91,28.91
-9.09,-6.58,2,30.59,30.66,30.66
-8.98,-6.1,1.98,30.03,29.96,29.96
-9.08,-5.76,1.95,25.41,25.41,24.57
-9.33,-5.97,1.9,19.88,19.88,19.88
-9.3,-6.03,1.84,19.74,19.74,20.09
-9.35,-6.05,1.81,23.1,23.1,23.1
-9.36,-5.9,1.73,24.22,24.57,24.57
-9.24,-5.42,1.67,25.97,26.6,26.6
-9.22,-4.69,1.77,26.18,25.76,25.76
-9.42,-4.83,1.8,21.7,21.7,21.7
-9.34,-4.82,1.62,24.71,25.48,25.48
-9.36,-4.38,1.68,27.93,27.86,27.86
-9.41,-3.52,1.84,25.62,25.2,25.2
-9.16,-3.19,1.82,20.93,20.37,20.37
-9.17,-2.64,1.6,17.22,17.22,17.15
-9.01,-2.5,1.79,15.75,15.75,15.75
-9.04,-2.5,1.95,13.51,13.3,13.3
-9.12,-1.98,1.76,13.23,13.51,13.51
-8.87,-1.67,1.78,15.19,15.05,15.05
-9.21,-1.4,1.92,12.53,12.53,11.69
-9.45,-1.02,1.99,8.05,8.05,8.05
-9.09,-0.89,1.76,10.99,10.99,10.99
-9.12,-0.5,1.81,11.76,11.76,11.76
-9.23,0.22,2.09,12.18,12.18,12.18
-8.85,0.96,2.02,8.96,8.54,8.54
-8.68,0.88,1.92,5.67,5.6,5.6
-8.49,1.16,2.05,6.37,6.51,6.51
-8.34,1.16,1.97,6.93,6.86,6.86
-8.33,1.24,1.76,9.52,10.08,10.08
-8.39,1.58,1.8,12.46,13.23,13.23
-8.22,2.38,1.96,12.53,12.53,12.53
-8.09,2.71,1.79,7.77,7.77,7.77
-8.27,2.99,1.75,5.11,5.11,5.11
-8.51,3.06,1.94,2.03,2.03,2.03
-8.18,3.46,1.83,1.54,1.61,1.61
-8.03,3.85,1.74,-1.05,-1.61,-1.61
-7.91,3.93,1.69,-4.34,-4.34,-4.34
-7.72,4.08,1.6,-3.22,-3.08,-3.08
-7.81,4.33,1.73,-3.5,-4.48,-4.48
-8,4.38,1.95,-5.67,-5.39,-5.39
-7.94,4.73,1.92,-4.41,-3.85,-3.85
-7.69,4.98,1.69,-3.5,-3.43,-3.43
-7.72,5.52,1.99,-4.34,-4.69,-4.69
-7.48,5.74,2.09,-5.32,-5.46,-5.46
-7.14,5.92,1.94,-6.72,-6.72,-6.72
-6.87,6.36,1.94,-6.51,-6.3,-6.3
-6.24,6.24,1.83,-5.32,-5.04,-5.04
-5.66,6.23,1.82,-3.64,-3.64,-3.64
-5.31,6.56,2.07,-0.14,-0.14,-0.14
-4.78,6.7,2.07,0.7,0.7,0.7
-4.47,6.75,2.12,2.1,2.31,2.31
-4.4,6.75,2.34,3.99,4.34,4.34
-4.22,6.92,2.46,6.23,6.16,6.16
-4.16,6.88,2.48,4.97,4.83,4.83
-4.29,6.74,2.46,5.11,5.67,5.95
-4.59,6.81,2.51,7.56,7.56,7.98
-4.91,6.98,2.59,7.49,7.49,7.35
-5.36,7.25,2.68,5.04,5.04,5.04
-5.97,7.41,2.62,2.1,2.1,2.1
-6.09,7.34,2.38,-1.33,-1.75,-1.75
-6.38,7.03,2.28,-3.08,-3.08,-3.08
-6.84,7.03,2.08,-0.42,0.07,0.07
-6.78,7.01,1.92,2.31,2.52,2.52
-6.52,7.19,2.06,1.89,1.89,1.68
-6.55,6.75,2.01,2.52,2.52,3.15
-6.38,6.61,1.72,10.29,10.29,11.13
-5.98,7.21,1.84,12.74,12.74,12.74
-5.65,7.52,2.21,7.21,7.21,7.21
-5.25,7.08,1.95,4.2,4.2,4.2
-5.06,6.79,1.82,8.75,8.75,8.75
-5.18,7.19,2.3,5.04,5.04,5.04
-5.02,7.18,2.4,-2.03,-2.03,-2.03
-5.02,6.27,2.09,-3.36,-3.36,-3.36
-5.21,6.03,2.05,1.33,1.33,1.33
-5.61,6.36,2.55,-2.38,-2.38,-3.64
-5.81,6.13,2.41,-9.66,-9.66,-9.66
-5.92,5.57,1.99,-6.72,-5.95,-5.95
-6.52,5.5,2.38,-7.98,-7.98,-7.98
-6.87,5.56,2.35,-13.37,-13.86,-13.86
-7.08,5.38,2,-14.77,-14.77,-14.77
-7.23,5.16,1.97,-14.56,-14.56,-15.05
-7.55,4.54,2.04,-17.92,-17.92,-17.92
-8.02,3.76,1.75,-13.51,-13.51,-13.51
-8.25,3.89,1.69,-6.79,-6.09,-6.09
-8.48,4.32,2.11,-11.55,-11.55,-11.55
-8.46,3.69,1.71,-16.66,-16.66,-16.66
-8.96,3.04,1.57,-10.36,-10.36,-10.36
-9.29,3.45,1.97,-8.05,-8.61,-8.61
-9.04,3.72,1.88,-13.23,-13.79,-13.79
-8.84,3.29,1.69,-15.05,-14.98,-14.98
-8.83,2.49,1.91,-12.04,-11.62,-11.62
-8.88,2.49,2.22,-11.13,-11.13,-11.13
-8.55,2.72,2.12,-11.97,-11.97,-12.04
-8.58,2.61,2.06,-12.81,-12.81,-14.35
-8.93,1.79,2.36,-17.78,-17.78,-35.7
-8.54,1.98,2.12,-18.62,-18.62,-18.62
-8.39,2.13,2.08,-19.74,-19.74,-19.74
-9.05,0.67,2.5,-26.74,-26.74,-27.44
-9.12,-0.3,2.22,-23.66,-23.66,-23.66
-8.93,-0.03,2.01,-14.84,-12.18,-12.18
-8.76,1.22,2.34,-9.8,-9.8,-9.8
-9.11,0.85,2.54,-22.26,-22.26,-22.26
-9.38,-0.56,2.07,-30.87,-30.87,-30.87
-9.71,-1.07,1.99,-22.61,-19.25,-19.25
-9.62,-1.05,2.3,-13.58,-13.3,-13.51
-10.37,-1.82,1.95,-23.73,-23.17,-23.17
-10.51,-2.16,2.1,-14.77,-13.23,-13.23
-10.33,-2.24,2.24,-8.26,-7.84,-7.84
-10.64,-2.14,2.21,-14,-14,-15.12
-10.5,-2.22,2.2,-16.59,-16.59,-16.59
-9.86,-2.55,2.16,-8.96,-8.96,-8.96
-9.76,-2.38,2.28,-7.7,-7.7,-7.7
-10.05,-2.69,2.42,-14.49,-14.49,-14.49
-9.85,-2.51,2.4,-11.69,-11.69,-11.69
-9.42,-2.74,2.39,-10.01,-11.34,-11.34
-9.43,-3.31,2.5,-15.19,-15.75,-17.08
-9.37,-3.38,2.35,-17.99,-17.99,-17.99
-9.18,-3.47,2.36,-15.61,-14.07,-14.07
-8.99,-3.38,2.36,-12.81,-13.09,-13.93
-9.62,-4.43,2.37,-17.92,-17.92,-18.13
-9.76,-4.91,2.23,-14.42,-14.42,-13.02
-9.5,-5.06,2.19,0.56,0.56,0.56
-9.35,-4.11,2.28,4.2,4.2,3.43
-9.23,-4.77,2.29,-1.75,-1.61,-1.61
-9.24,-4.34,2.46,-2.38,-2.38,-2.73
-9.07,-4.23,2.33,-9.52,-9.52,-10.15
-8.79,-5.07,2.3,-13.23,-13.23,-13.3
-8.79,-5.6,2.29,-11.13,-11.13,-10.43
-8.7,-5.56,2.18,-6.65,-5.25,-4.69
-8.33,-5.1,2.22,-3.64,-3.99,-4.34
-8.06,-5.27,2.43,-6.44,-6.44,-7.7
-8.09,-5.7,2.41,-8.26,-8.26,-7.98
-7.99,-5.9,2.33,-3.85,-3.85,-3.29
-7.82,-5.82,2.45,-1.4,-1.4,-1.4
-7.81,-5.19,2.49,-3.92,-3.92,-3.92
-7.76,-5.13,2.35,-8.89,-8.89,-9.94
-7.7,-5.83,2.25,-11.55,-11.55,-11.55
-7.78,-6.35,2.19,-7.35,-7.35,-7.35
-7.92,-6.13,2.41,-4.27,-4.27,-4.2
-8,-5.95,2.48,-5.67,-5.67,-5.67
-7.99,-5.92,2.44,-8.05,-8.61,-8.61
-7.81,-6.04,2.46,-9.03,-9.03,-9.03
-7.75,-6.5,2.33,-7.49,-7.49,-7.49
-7.75,-6.51,2.22,-5.25,-5.25,-5.25
-7.6,-6.23,2.19,-3.08,-3.08,-3.08
-7.53,-6.41,2.18,-2.24,-2.24,-2.24
-7.48,-6.66,2.09,-1.54,-1.26,-1.26
-7.48,-6.14,2.34,-1.54,-2.66,-2.66
-7.3,-5.92,2.59,-6.79,-6.79,-6.79
-7.24,-6.49,2.46,-10.57,-10.71,-10.71
-7.13,-6.72,2.36,-10.01,-9.52,-9.52
-6.96,-6.83,2.4,-4.69,-4.2,-4.2
-6.85,-6.82,2.34,-1.89,-1.61,-1.61
-6.82,-6.68,2.45,-1.19,-1.33,-1.33
-6.76,-6.72,2.62,-1.47,-1.19,-1.19
-6.68,-6.87,2.55,0.56,0.56,0.56
-6.72,-6.89,2.48,1.89,1.89,1.89
-6.82,-6.74,2.51,0.91,0.91,0.56
-6.89,-6.65,2.57,-0.84,-0.84,-1.12
