aX,aY,aZ,gX,gY,gZ
-2.7,-9.72,-0.71,-12.81,-12.74,-12.74
-2.46,-10.1,-0.56,-6.23,-5.74,-5.74
-2.58,-9.83,-0.48,-3.64,-2.59,-2.59
-2.73,-9.52,-0.52,-1.33,-0.98,-0.63
-3,-9.5,-0.7,0.63,0.84,0.84
-3.23,-9.3,-0.77,1.61,1.75,1.75
-3.41,-8.94,-0.8,2.17,2.17,2.17
-3.77,-9.23,-1,1.4,1.26,1.26
-3.84,-8.95,-0.96,0.07,0.07,0
-3.75,-8.86,-1,-0.7,-0.7,-0.91
-3.69,-8.97,-1.06,-2.24,-2.59,-2.59
-3.61,-9.27,-1.11,-3.57,-3.57,-3.78
-3.33,-9.19,-1.07,-4.34,-4.34,-4.34
-3.08,-9.17,-1.06,-5.39,-5.39,-5.39
-2.96,-9.48,-1.21,-5.67,-5.74,-5.74
-2.64,-9.28,-1.18,-6.09,-6.09,-6.3
-2.29,-9.08,-1.04,-7.49,-7.49,-7.91
-2.06,-9.19,-1.01,-9.52,-9.52,-9.52
-2.04,-9.54,-1,-9.59,-9.59,-9.59
-2.12,-9.59,-0.93,-8.54,-8.05,-8.05
-2.36,-9.68,-0.9,-6.3,-6.3,-6.09
-2.61,-9.77,-0.84,-3.43,-3.43,-3.43
-2.8,-9.78,-0.84,-0.35,-0.35,-0.35
-3.04,-9.71,-0.83,2.38,2.38,2.38
-3.2,-9.58,-0.79,5.74,6.16,6.16
-3.25,-9.54,-0.82,11.83,11.83,11.97
-2.95,-9.34,-0.7,13.51,13.51,13.44
-2.76,-9.2,-0.75,12.18,12.18,12.18
-2.71,-9.26,-0.81,11.13,10.64,10.64
-2.75,-9.34,-0.92,9.73,9.59,9.59
-3.06,-9.33,-1.12,6.72,6.3,6.02
-3.25,-9.16,-1.15,3.5,3.5,3.15
-3.28,-8.88,-1.17,1.26,0.49,0.07
-3.37,-8.82,-1.28,-2.31,-2.31,-3.78
-3.55,-9.04,-1.4,-5.88,-5.88,-6.65
-3.53,-8.96,-1.42,-8.75,-8.75,-8.75
-3.44,-8.89,-1.36,-11.55,-11.55,-11.55
-3.38,-9.14,-1.36,-12.95,-12.95,-12.95
-3.24,-9.21,-1.31,-13.37,-13.37,-13.37
-3.06,-9.33,-1.22,-13.09,-13.09,-13.09
-2.88,-9.35,-1.13,-12.53,-12.53,-12.53
-2.73,-9.41,-1.07,-11.69,-11.69,-11.48
-2.61,-9.47,-1.04,-10.71,-10.29,-10.01
-2.63,-9.53,-0.95,-8.33,-7.84,-7.35
-2.78,-9.6,-0.95,-5.04,-5.04,-5.04
-2.82,-9.39,-0.88,-2.87,-2.73,-2.73
-2.87,-9.29,-0.84,-2.38,-2.38,-2.38
-2.97,-9.24,-0.88,-2.59,-2.66,-2.66
-3.1,-9.27,-0.85,-2.66,-2.59,-2.59
-3.26,-9.49,-0.93,-2.52,-2.38,-2.38
-3.39,-9.57,-0.98,-1.82,-1.82,-1.82
-3.28,-9.44,-0.92,-1.19,-1.19,-1.12
-3.14,-9.5,-0.94,-0.84,-0.84,-0.77
-3,-9.62,-0.94,0.35,0.35,0.56
-2.92,-9.54,-0.96,1.75,2.24,2.38
-2.87,-9.31,-0.94,3.36,3.36,3.78
-2.95,-9.25,-1.01,4.55,4.55,4.55
-3.08,-9.27,-1.12,6.02,6.02,6.3
-3.27,-9.34,-1.14,7.21,7.49,7.49
-3.41,-9.53,-1.28,9.94,9.94,10.22
-3.51,-9.51,-1.21,11.27,11.69,11.83
-3.49,-9.01,-1.03,12.11,12.11,12.11
-3.6,-8.82,-0.92,10.57,10.57,10.57
-3.76,-8.73,-0.86,7.07,7.07,7.07
-3.76,-8.66,-0.91,4.27,3.71,3.71
-3.71,-8.92,-1.01,1.19,1.19,1.19
-3.62,-9.27,-1.23,-0.56,-0.56,-0.56
-3.57,-9.52,-1.39,-1.4,-1.4,-1.4
-3.45,-9.53,-1.37,-1.61,-1.61,-1.61
-3.3,-9.36,-1.39,-1.96,-1.96,-2.1
-3.12,-9.16,-1.26,-3.71,-3.71,-3.71
-2.89,-9.17,-1.32,-4.9,-5.32,-5.32
-2.77,-9.23,-1.34,-6.93,-7.14,-7.14
-2.75,-9.11,-1.31,-9.73,-9.73,-10.08
-2.81,-9.15,-1.32,-12.04,-12.04,-12.25
-2.86,-9.05,-1.3,-12.53,-12.53,-12.46
-2.91,-9.04,-1.27,-10.57,-10.57,-10.57
-3.13,-9.21,-1.35,-6.37,-6.37,-6.37
-3.31,-9.41,-1.48,-0.35,0.49,0.49
-3.43,-9.38,-1.52,6.23,6.23,6.65
-3.67,-9.31,-1.56,8.75,8.75,8.89
-3.84,-9.21,-1.48,9.73,9.73,9.87
-4.02,-9.13,-1.33,10.36,10.36,10.36
-4.05,-9.09,-1.17,10.5,10.5,10.5
-4.05,-9.09,-1.03,10.64,10.64,10.64
-3.97,-8.99,-0.95,10.43,10.43,10.36
-3.9,-8.85,-0.95,9.87,9.87,9.87
-3.85,-8.78,-1.01,9.38,9.38,9.38
-3.85,-8.97,-1.14,9.66,9.66,9.66
-3.8,-9.03,-1.23,10.43,10.43,10.43
-3.77,-8.81,-1.2,10.43,10.15,10.15
-3.65,-8.54,-1.1,8.82,8.82,8.05
-3.54,-8.3,-0.99,4.41,4.41,4.41
-3.51,-8.3,-0.89,-1.4,-2.1,-2.1
-3.6,-8.39,-0.87,-6.09,-8.68,-8.68
-3.69,-8.56,-0.89,-13.37,-15.4,-15.4
-3.91,-8.91,-0.94,-23.24,-24.08,-24.08
-4.09,-9.35,-1.03,-28,-28,-28.49
-4.19,-9.65,-1.16,-29.19,-29.19,-28.84
-4.18,-9.57,-1.17,-26.39,-26.39,-26.39
-4.08,-9.27,-1.16,-21.91,-21.91,-21.91
-4,-9.09,-1.22,-14.21,-14.21,-14.21
-3.97,-9.04,-1.34,-8.82,-7.21,-7.21
-3.9,-9.09,-1.5,-3.36,-2.31,-2.31
-3.99,-9.56,-1.84,0.07,0.07,0.28
-4.03,-9.7,-1.71,2.45,2.45,2.45
-3.97,-9.55,-1.53,3.85,4.2,4.2
-3.87,-9.38,-1.27,4.97,4.97,4.97
-3.85,-9.25,-1.09,5.25,5.25,5.39
-3.83,-9.09,-1,5.88,6.16,6.3
-3.82,-9.01,-1.02,7.21,7.21,7.21
-3.79,-8.96,-1.01,9.45,9.73,9.73
-3.66,-9.35,-1.18,18.9,18.9,18.9
-3.73,-9.49,-1.32,28,28,28
-3.94,-9.53,-1.39,32.9,32.9,32.9
-4.08,-9.57,-1.49,35.84,36.12,36.33
-4.1,-9.37,-1.47,36.47,36.4,36.4
-3.91,-9.26,-1.37,34.58,34.3,34.3
-3.74,-9.34,-1.41,32.48,32.48,32.48
-3.67,-9.45,-1.51,32.06,32.34,32.34
-3.53,-8.97,-1.42,36.61,36.61,36.75
-3.39,-8.62,-1.3,35.07,35.07,34.65
-3.24,-8.49,-1.23,30.73,30.73,30.24
-3.04,-8.5,-1.28,25.69,25.69,25.69
-2.98,-8.77,-1.35,21.56,21.56,21.56
-2.93,-8.77,-1.28,14.91,14.91,14.91
-2.53,-9.09,-1.31,-7.35,-7.35,-7.35
-2.49,-9.1,-1.24,-11.34,-11.34,-11.48
-2.5,-8.89,-1.2,-12.18,-12.53,-12.39
-2.41,-8.75,-1.23,-12.81,-12.81,-12.81
-2.27,-8.79,-1.28,-13.93,-14,-14
-2.19,-8.94,-1.5,-15.82,-15.89,-15.89
-2.32,-9.06,-1.6,-17.29,-17.29,-17.71
-2.44,-9.02,-1.63,-18.97,-19.18,-19.67
-2.58,-9.2,-1.73,-20.65,-20.65,-20.79
-2.56,-9.32,-1.88,-20.72,-20.72,-20.51
-2.5,-9.15,-1.87,-19.88,-19.88,-19.88
-2.47,-8.82,-1.83,-21.14,-21.49,-21.49
-2.45,-8.35,-1.8,-24.43,-25.2,-25.2
-2.48,-8.73,-1.67,-32.97,-33.74,-33.74
-2.46,-8.85,-1.76,-38.57,-39.2,-39.2
-2.63,-9.18,-1.79,-41.44,-41.65,-41.65
-2.33,-9.53,-1.88,-41.3,-40.95,-40.95
-2.18,-10.04,-1.95,-38.08,-37.31,-37.31
-1.68,-10.4,-1.85,-30.03,-30.03,-29.05
-0.79,-11.41,-1.75,-24.57,-22.82,-21.7
0.69,-11.89,-1.55,-16.52,-14.21,-13.02
1.79,-11.8,-1.22,-7.35,-7.35,-6.23
1.73,-11.33,-1.14,4.69,4.69,4.69
-0.23,-9.99,-1.32,20.58,21.35,21.35
-0.82,-9.72,-1.44,27.37,27.79,27.79
-1.15,-9.86,-1.51,30.52,31.01,31.01
-1.36,-10.04,-1.76,33.39,33.88,35
-1.66,-10.08,-1.92,37.52,37.52,39.06
-2.34,-10.03,-1.84,41.23,41.23,41.44
-2.7,-9.83,-1.75,41.65,41.44,41.44
-2.6,-9.48,-1.5,39.27,39.27,38.85
-2.45,-9.17,-1.25,33.88,32.97,32.97
-2.1,-8.99,-0.98,27.65,27.65,27.65
-1.59,-8.65,-0.95,18.06,18.06,18.06
-1.2,-8.36,-0.91,10.85,10.85,10.85
-1.07,-8.26,-0.93,3.29,3.29,3.29
-0.99,-8.43,-1,-6.93,-6.93,-6.93
-0.69,-8.7,-1.07,-13.3,-13.3,-13.3
-0.37,-8.93,-1.1,-17.92,-17.92,-17.92
-0.33,-9.53,-1.13,-21.35,-21.35,-21.35
-0.58,-10.01,-1.19,-21.14,-20.86,-20.86
-0.77,-10.55,-1.23,-17.85,-17.85,-17.29
-0.76,-10.66,-1.25,-13.16,-13.16,-12.39
-0.96,-10.75,-1.22,-7.91,-7.91,-7.28
-1.04,-10.71,-1.22,-0.28,-0.28,-0.28
-0.94,-10.67,-1.24,5.18,7.14,7.14
-0.69,-10.49,-1.32,12.74,12.74,13.86
-0.47,-10.33,-1.29,21.91,21.91,22.82
-0.38,-10.33,-1.27,28.14,28.14,28.14
-0.23,-10.57,-1.09,35.63,35.63,35.63
-0.28,-10.14,-0.9,37.38,37.52,37.52
-0.28,-9.64,-0.75,36.68,36.26,36.26
-0.34,-9.68,-0.58,35.35,34.93,34.93
-0.34,-10.01,-0.57,33.11,32.9,32.9
-0.5,-9.89,-0.52,31.36,30.17,30.17
-0.9,-9.43,-0.25,26.39,26.39,26.39
-0.91,-9.4,-0.1,21.56,21.56,21.56
-0.57,-9.04,-0.08,19.67,19.11,19.11
-0.17,-8.72,0.07,17.5,16.73,16.73
0.09,-9.97,0.01,12.46,12.46,12.46
0.13,-10.4,0.04,6.23,5.81,5.81
0.21,-10.09,0.23,3.71,3.71,3.71
0.24,-9.85,0.38,2.52,2.52,2.52
0.3,-9.58,0.39,-0.35,-0.35,-0.35
0.22,-9.79,0.33,-3.01,-3.29,-3.29
0.22,-10.04,0.41,-3.15,-3.15,-2.8
0.57,-10.07,0.41,-0.28,0.98,1.47
1.28,-9.97,0.22,6.02,6.02,6.02
1.51,-9.93,0,10.29,10.85,10.85
1.53,-10.65,-0.04,14.35,16.03,16.03
1.49,-10.9,-0.09,24.22,24.22,24.22
1.27,-10.35,0.11,37.1,37.1,37.1
0.77,-9.73,0.35,42.28,43.05,43.05
-0.43,-9.77,0.7,44.52,44.52,44.52
-1.54,-10.3,0.89,41.3,41.3,41.3
-1.79,-10.28,0.98,38.22,36.96,36.96
-2.09,-9.74,1.23,33.25,33.25,31.99
-3.01,-9.4,1.17,24.71,24.71,24.71
-3.07,-9.19,1.35,20.23,19.74,19.74
-3.02,-8.8,1.72,16.59,16.59,16.03
-3.35,-8.87,2.03,13.65,13.51,13.51
-4.57,-10.7,2.94,26.11,29.75,29.75
-4.41,-11.53,2.76,47.95,47.95,50.54
-4.39,-11.61,2.91,63.84,69.23,71.75
-4.61,-11.38,3.41,84.7,89.6,92.19
-4.98,-11.05,3.81,104.3,109.2,111.79
-5.35,-10.83,4.21,124.67,129.78,129.78
-5.44,-10.05,4.38,146.44,146.44,148.54
-5.37,-9.01,4.27,162.68,162.68,162.68
-5.15,-7.92,4.14,169.47,169.47,169.47
-5.1,-7.4,4.14,177.03,177.03,177.03
-5.45,-7.01,4.48,181.86,181.86,181.86
-5.9,-6.54,4.65,190.4,191.52,191.52
-6.18,-5.58,4.15,198.31,198.31,198.31
-6.4,-4.41,3.3,203.91,204.33,204.33
-6.6,-3.35,2.83,206.08,207.2,207.2
-7.47,-0.43,0.89,215.74,215.74,215.74
-7.92,0.03,0.38,216.65,216.58,216.58
-8.09,0.64,0.11,216.44,216.23,216.23
-7.61,1.33,-0.24,215.74,215.81,215.53
-7.32,1.86,-0.33,214.69,214.48,214.48
-7.03,2.53,-0.33,211.4,210.98,210.98
-6.53,3.06,-0.29,206.64,206.64,206.64
-6.09,3.87,0.05,196.56,196.56,196.56
-6.47,4.23,0.23,177.38,177.38,177.38
-7.66,5.48,0.06,159.25,159.25,159.25
-8.97,6.67,0.15,137.27,126.28,126.28
-10.08,7.09,0.67,98.63,98.63,98.63
-10.73,7.19,0.28,69.16,65.94,65.94
-10.73,6.93,-0.25,45.64,45.64,45.64
-10.31,7.15,0.89,19.74,19.74,19.74
-10.16,7.45,1.12,-7.91,-7.91,-7.91
-9.17,7.54,1.15,-36.89,-39.9,-39.9
-7.99,7.61,0.97,-57.19,-59.78,-59.78
-6.74,7.23,0.65,-78.89,-78.89,-78.89
-6.06,6.64,0.63,-89.88,-89.88,-90.72
-7.35,4.69,0.52,-92.05,-92.05,-92.05
-8.52,4.54,0.8,-81.41,-79.59,-79.59
-8.97,5.1,1.42,-48.37,-45.85,-40.81
-9.32,5.45,1.34,-22.12,-22.12,-19.46
-8.29,5.71,1.77,-3.92,-2.31,-2.31
-6.17,5.99,2.75,2.31,2.31,1.75
-4.86,6.32,3.13,-9.24,-9.24,-9.24
-4.07,6.36,2.91,-21.98,-21.98,-21.98
-4.15,5.33,2.31,-38.78,-38.78,-43.05
-4.7,5.09,2.03,-56.7,-56.7,-56.7
-5.94,4.77,2.27,-76.37,-76.37,-76.37
-7.81,3.69,2.43,-84.63,-84.63,-85.12
-8.66,2.54,2.29,-79.94,-79.94,-79.94
-9.22,1.34,2.11,-64.54,-64.54,-64.54
-8.95,1.05,2.01,-31.78,-31.78,-31.78
-8.08,1.55,2.26,-11.27,-11.27,-7.98
-7.31,2.15,2.82,16.8,16.8,16.8
-6.87,2.58,3.02,36.33,36.33,36.33
-6.73,3.26,3.11,58.24,58.24,58.24
-7.37,3.62,3.12,69.16,69.16,69.16
-9.12,4.05,2.88,74.97,76.51,76.51
-10.11,3.96,2.36,81.55,81.55,83.16
-10.66,4.53,1.89,88.76,88.76,89.39
-10.66,5.27,1.58,90.51,90.51,90.16
-10.38,6.01,1.56,84.21,84.21,84.21
-10.09,6.39,1.52,76.16,76.16,74.55
-9.86,6.57,1.23,61.04,61.04,61.04
-9.48,6.54,1.09,50.61,50.61,50.61
-8.94,6.69,1.13,35.91,34.16,34.16
-8.66,7,1.26,25.13,21.21,19.39
-8.84,7.37,1.22,6.3,6.3,6.3
-8.76,7.3,1.21,-8.4,-9.73,-9.73
-8.47,6.96,1.21,-16.31,-19.81,-19.81
-8.51,6.77,1.33,-24.64,-25.48,-26.88
-8.7,6.57,1.39,-29.12,-29.89,-29.89
-8.86,6.47,1.45,-29.82,-29.05,-29.05
-8.79,6.43,1.55,-26.74,-26.18,-25.06
-8.53,6.49,1.67,-22.12,-21.49,-20.44
-8.34,6.82,1.9,-17.15,-17.15,-17.15
-8.48,6.89,1.94,-12.32,-11.55,-11.55
-8.82,6.89,1.91,-5.04,-5.04,-5.04
-8.89,6.88,1.96,6.51,6.51,6.51
-8.48,7.13,1.97,12.18,13.58,13.58
-7.73,7.4,1.98,15.89,15.89,15.89
-7.14,7.65,1.9,15.54,15.54,15.54
-7.04,7.83,1.89,13.58,13.58,13.58
-7.33,7.99,1.81,12.53,12.53,12.46
-7.54,8.32,1.84,11.83,11.83,11.62
-7.16,8.6,2.01,8.19,8.19,8.19
-6.38,9.2,2.04,-3.29,-3.29,-3.29
-6.09,9.15,1.95,-5.04,-5.04,-5.04
-5.75,9.28,2.01,-6.58,-6.58,-6.58
-5.04,9.13,1.98,-7,-7,-7
-4.03,8.87,2.09,-9.24,-9.66,-9.66
-3.19,8.89,1.9,-12.32,-12.6,-12.6
-2.22,8.38,2.01,-14.42,-14.84,-14.84
-1,7.67,2.05,-18.13,-18.76,-18.76
-0.32,7.03,2.04,-26.88,-26.88,-27.93
0.38,6.52,1.96,-33.6,-33.6,-34.51
0.66,5.91,1.96,-39.13,-39.13,-39.13
0.67,4.92,1.87,-38.85,-38.85,-38.85
0.54,4.69,1.94,-35.07,-35.07,-35.07
1.15,4.9,2.09,-33.11,-33.11,-33.11
1.76,5.18,2.3,-33.39,-33.39,-33.39
2.03,5.12,2.33,-32.55,-32.2,-32.2
1.79,4.95,2.39,-29.75,-27.58,-27.58
1.44,4.78,2.41,-21.21,-21.21,-21.21
1.3,4.82,2.43,-14.91,-14.91,-14.91
1.22,4.61,2.17,-11.06,-11.06,-11.06
1.52,4.27,2,-8.82,-8.82,-8.82
1.34,4.51,2.23,-8.26,-8.26,-8.26
0.78,4.6,2.45,-11.13,-11.48,-11.48
0.1,4.8,2.38,-13.86,-14.35,-14.35
-0.46,5.37,2.54,-15.61,-15.89,-15.75
-1.96,6.17,2.83,-14.77,-14.42,-14.42
-3.23,6.67,3.21,-9.8,-9.8,-8.89
-5,7.61,3.22,-3.78,-0.98,0.21
-6.5,8.57,3.76,8.33,8.33,13.93
-7.89,9.43,4.15,25.34,25.34,25.34
-8.05,10.22,4.18,35.49,35.49,35.49
-8.35,10.78,3.94,40.53,42.56,42.56
-8.28,10.56,3.76,49.77,51.73,51.73
-8.6,11.18,3.67,56.49,56.49,56.7
-8.12,11.52,3.47,54.39,54.39,54.39
-6.91,11.71,3.25,49.28,48.23,48.23
-6.03,11.61,3.01,36.12,36.12,34.65
-5.48,11.31,2.91,26.32,22.82,21
-5.7,11.05,2.74,12.04,8.61,6.86
-5.9,10.61,2.56,-1.47,-1.47,-6.23
-6.02,10.06,2.35,-13.16,-13.16,-14.49
-6.09,9.3,2.13,-21.56,-22.33,-22.33
-6.26,8.75,1.96,-25.76,-25.76,-25.97
-6.19,8.29,1.97,-26.11,-26.04,-25.9
-6.09,7.99,1.97,-24.99,-24.57,-24.57
-5.81,7.68,2.12,-22.33,-21.91,-21.91
-5.76,7.58,2.15,-16.03,-16.03,-15.33
-5.41,7.57,2.26,-9.45,-9.45,-9.45
-5.17,7.64,2.38,-2.17,-1.54,-1.54
-5.04,7.55,2.35,1.82,2.24,2.24
-5.08,7.52,2.39,4.41,4.41,4.97
-5.37,7.43,2.3,6.09,6.09,6.23
-5.61,7.3,2.32,7.42,7.42,7.63
-5.74,7.3,2.26,7.42,7.42,7.42
-5.65,7.33,2.3,5.74,5.74,5.74
-5.58,7.44,2.31,3.71,2.8,2.8
-5.75,7.48,2.35,1.05,1.05,0.77
-5.92,7.6,2.39,0.28,0.28,0.28
-5.83,7.76,2.45,0.42,0.42,0.35
-5.4,7.84,2.5,-0.63,-0.63,-1.4
-4.87,7.77,2.49,-5.32,-5.32,-5.32
-4.51,7.39,2.38,-9.87,-9.87,-9.87
-4.26,6.9,2.2,-14.35,-14.77,-14.77
-4.03,6.32,2,-17.01,-18.13,-18.13
-3.88,5.82,1.77,-19.11,-19.32,-19.53
-4.04,5.84,1.98,-20.51,-20.79,-21.28
-4.21,5.78,2.23,-23.17,-23.17,-23.52
-4.66,5.86,2.37,-24.29,-24.29,-24.43
-5.3,6.09,2.54,-21.7,-21.7,-21.7
-5.96,6.19,2.68,-15.05,-15.05,-15.05
-6.5,6.3,2.77,-6.93,-6.93,-6.93
-6.49,6.54,2.88,6.02,6.02,6.02
-6.37,6.87,3.01,12.32,14.07,14.07
-6.38,7.28,3.08,18.76,20.09,20.09
-6.25,7.45,3.14,23.03,23.03,23.52
-6.26,7.65,3.1,24.43,24.43,24.43
-6.47,7.92,3.05,23.52,23.52,23.52
-6.81,8.13,2.95,20.44,20.02,20.02
-7.08,8.11,2.83,17.85,16.52,16.52
-7.1,8,2.77,13.02,12.32,12.32
-7.38,8.04,2.62,8.47,7.91,7.91
-7.5,8.16,2.56,4.62,4.62,4.27
-7.49,8.68,2.54,2.66,2.66,2.45
-7.97,9.17,2.56,1.96,1.96,1.82
-8.51,9.86,2.55,1.19,0.7,0.21
-8.08,10.23,2.61,-2.1,-3.22,-3.78
-7.6,10.36,2.6,-6.58,-6.58,-8.12
-7.89,10.24,2.52,-7.91,-7.49,-7.49
-7.72,9.6,2.49,-1.82,-1.82,1.47
-7.26,9.3,2.42,8.68,8.68,9.45
-6.62,9.5,2.49,12.74,12.88,12.88
-6.5,9.72,2.45,14.21,14.77,15.12
-5.92,9.44,2.45,20.16,20.16,20.09
-5.3,9.71,2.55,17.85,17.85,17.85
-4.95,9.81,2.51,11.41,11.41,11.41
-5.15,9.86,2.41,8.26,8.26,8.26
-5.75,10.05,2.29,7.77,7.84,7.84
-5.38,9.97,2.22,8.33,8.33,8.12
-3.88,9.93,2.19,4.48,3.71,3.71
-2.57,9.94,2,-2.87,-4.9,-4.9
-1.83,9.6,2.03,-9.94,-9.94,-11.48
-1.44,9.23,2.01,-15.47,-16.03,-16.03
-1,8.75,1.9,-21.14,-21.14,-21.84
-0.12,8.2,1.77,-25.62,-25.62,-26.04
0.45,7.82,1.77,-28.56,-28.56,-28.56
0.95,7.52,1.87,-29.96,-29.96,-29.96
1.44,7.31,1.94,-29.54,-29.4,-29.4
1.54,7.25,2.08,-26.18,-25.41,-23.66
1.45,7.17,2.05,-17.5,-16.1,-16.1
2.12,6.78,2.15,-4.62,-3.71,-3.71
2.99,6.59,2.19,0,0,0
4.22,6.11,2.34,-2.66,-2.66,-2.66
5.17,5.41,2.34,-7.21,-9.1,-9.1
5.93,4.5,2.37,-15.4,-17.85,-17.85
6.67,3.24,2.41,-27.37,-27.37,-28.63
7.25,2.33,2.54,-41.23,-41.23,-41.23
7.22,1.29,2.56,-47.88,-47.88,-47.88
7.14,0.48,2.56,-49.14,-49.07,-49.07
7.37,0.14,2.57,-47.53,-47.53,-46.69
7.74,0.26,2.64,-43.33,-43.33,-43.33
8.16,0.72,2.72,-34.16,-34.16,-34.16
8.25,1.26,2.74,-25.41,-25.41,-25.41
8.17,1.65,2.75,-15.05,-15.05,-15.05
7.7,2.05,2.72,-2.17,-2.17,-2.17
7.36,2.99,2.74,8.75,8.75,8.75
7.06,3.83,2.8,16.73,17.71,19.32
6.77,4.24,2.64,22.33,22.75,22.75
6.45,4.67,2.66,23.66,23.38,23.38
5.8,4.99,2.65,21.49,20.93,20.93
5.06,5.39,2.66,17.01,16.59,16.59
4.42,5.55,2.64,13.58,13.23,13.23
3.59,5.57,2.5,9.8,9.24,9.24
3.4,5.86,2.51,4.97,4.97,4.27
2.77,6.14,2.81,-0.42,-0.42,-0.42
1.87,6.25,2.68,-5.25,-5.25,-5.25
1.32,6.59,2.77,-7.07,-7.91,-7.91
1.02,7.14,3.11,-12.39,-12.39,-12.39
0.37,7.37,3.31,-18.2,-18.2,-18.2
-0.31,7.58,3.29,-21.28,-21.28,-21.28
-1.07,8.07,3.38,-23.31,-23.31,-23.31
-1.46,8.2,3.71,-27.65,-29.54,-29.54
-1.75,7.91,3.49,-33.46,-33.46,-33.46
-1.96,7.82,3.62,-34.86,-34.86,-34.86
-2.78,7.97,4.05,-37.59,-38.08,-38.08
-4.05,6.79,3.87,-46.2,-46.48,-46.48
-3.96,6.51,4.03,-47.39,-47.39,-47.39
-5.08,6.33,4.38,-48.16,-48.72,-49
-7.02,5.37,4.26,-51.03,-51.45,-51.45
-7.86,4.49,4.18,-53.9,-54.11,-54.11
-7.75,4.51,4.58,-55.93,-55.93,-55.93
-8.35,4.25,4.99,-64.68,-64.68,-64.68
-9.54,3.24,4.7,-70.91,-88.83,-71.82
-10.23,1.9,4.58,-75.04,-75.04,-75.04
-9.98,0.47,4.85,-75.67,-75.74,-75.74
-10.27,0.33,4.98,-80.92,-82.04,-82.04
-10.28,0.07,5.28,-93.87,-95.97,-95.97
-9.78,-0.72,5.31,-112.14,-114.45,-114.45
-8.91,-1.97,5.1,-125.23,-129.29,-131.04
-8.22,-3.58,4.81,-143.71,-143.71,-143.71
-8.28,-4.87,4.79,-163.03,-165.62,-165.62
-7.81,-9.32,4.01,-231.07,-231.07,-231.07
-7.21,-11.32,3.4,-239.12,-239.12,-239.1
-6.57,-12.42,2.27,-232.54,-230.86,-230.8
-6.21,-12.51,2,-215.11,-215.11,-215.1
-5.69,-11.85,1.88,-188.72,-185.36,-185.3
-5.55,-11.2,2.13,-169.26,-159.39,-159.3
-5.93,-11.32,2.68,-142.52,-138.95,-131.5
-6.03,-11.69,3,-111.44,-107.24,-107.2
-6.12,-11.82,3.1,-67.76,-63.49,-63.49
-6.24,-11.63,3.09,-38.64,-38.64,-20.72
-6.34,-11.42,3.24,-2.94,-2.94,-2.94
-6.07,-10.7,3.12,16.31,22.26,22.26
-5.9,-9.7,2.84,37.87,37.87,42.28
-5.69,-8.68,2.59,53.27,53.27,53.27
-5.59,-7.67,2.43,65.03,65.03,65.03
-5.58,-7.25,2.45,68.46,69.09,69.09
-5.68,-6.96,2.44,69.72,69.3,69.3
-5.77,-6.8,2.47,66.99,66.99,66.43
-6.04,-6.65,2.34,61.32,61.32,61.32
-6.38,-6.75,2.17,57.75,56.84,56.84
-6.72,-7,1.99,53.2,53.2,51.94
-6.92,-7.4,2.02,46.27,46.27,46.27
-6.92,-7.6,2.17,39.41,38.85,38.85
-6.99,-7.71,2.18,35,34.37,34.37
-7.15,-7.84,2.14,30.94,30.94,30.59
-7.14,-7.88,2.14,29.68,29.19,29.19
-7.03,-7.97,2.23,29.12,29.19,29.19
-7.25,-8.6,2.26,29.82,30.1,30.1
-7.46,-9.3,2.54,31.57,31.57,31.92
-7.57,-9.89,2.73,35.28,35.28,35.28
-7.38,-9.99,2.91,42.91,42.91,42.91
-7.15,-9.79,3,49.07,49.07,49.07
-7.28,-9.69,3.17,55.16,55.86,57.33
-7.53,-9.37,3.39,59.64,60.06,60.41
-7.86,-9.08,3.68,61.04,60.97,60.97
-8.04,-8.59,3.83,58.87,58.31,58.31
-7.69,-8.21,4.32,52.22,52.92,52.92
-7.17,-8.11,4.49,59.01,60.06,60.06
-7.44,-7.9,4.97,68.25,69.51,69.51
-7.81,-7.79,5.24,75.95,80.22,80.22
-7.75,-7.22,5.37,86.66,89.32,90.44
-7.91,-6.38,5.6,96.04,98.14,99.26
-7.87,-5.25,5.57,106.61,106.61,106.61
-8.1,-4.44,6.02,114.94,115.92,115.92
-8.74,-3.71,6.11,121.59,122.78,122.78
-8.72,-2.9,5.79,130.48,130.48,131.25
-8.44,-1.78,5.58,133.7,134.05,134.26
-8.19,-0.44,5.48,134.54,134.12,134.12
-8.09,0.6,5.48,129.15,129.15,128.38
-8.27,1.56,5.49,124.74,123.97,123.97
-8.74,2.39,5.32,117.32,117.32,116.69
-8.41,2.76,4.92,112.14,112.14,111.3
-7.83,3.5,4.72,107.03,105.98,105.98
-7.68,4.82,4.7,96.74,96.74,95.41
-7.46,5.45,4.57,81.83,81.83,81.83
-7.79,5.72,4.44,74.48,74.48,73.71
-7.46,5.99,4.27,68.67,67.34,67.34
-6.96,6.6,4.13,62.16,62.16,61.46
-6.29,6.96,4.05,53.41,53.41,53.41
-5.62,7.3,3.94,49.21,47.95,47.95
-5.25,7.49,3.86,45.08,45.08,44.87
-4.69,7.61,3.64,43.82,43.82,43.82
-3.79,7.52,3.57,42.98,42.42,42.42
-2.77,7.83,3.47,40.18,39.9,39.9
-1.67,7.92,3.44,37.24,37.24,37.24
-1.05,8.14,3.42,35.21,35,35
-0.57,8.02,3.32,33.6,33.53,33.53
-0.01,7.68,3.26,32.55,32.55,32.34
0.72,7.7,3.14,30.94,30.59,30.59
1.28,7.74,3,27.65,27.65,27.16
1.8,7.36,2.78,25.55,25.2,25.06
2.23,6.86,2.57,24.43,24.22,23.94
2.79,6.59,2.39,22.26,22.26,21.42
3.6,6.23,2.21,17.29,17.29,16.8
4.29,5.57,2.04,13.79,13.79,13.3
5.05,5.28,1.92,9.66,9.66,9.66
5.68,4.57,1.91,6.93,6.93,6.93
6.06,3.93,1.73,4.9,4.9,4.48
6.73,3.5,1.67,2.66,2.66,2.66
7.21,3.42,1.86,-0.77,-1.12,-1.12
7.47,3.41,1.86,-3.15,-4.13,-4.13
7.7,3.45,2.01,-5.32,-5.32,-5.32
7.8,3.69,2.24,-4.97,-4.97,-4.97
7.61,4.23,2.17,-3.43,-2.87,-2.87
7.43,4.4,2.14,-1.96,-1.89,-1.89
7.34,3.98,1.89,-2.31,-2.31,-2.38
7.66,3.68,1.88,-5.04,-5.04,-5.04
8.18,3.19,1.91,-8.89,-8.89,-8.89
8.57,3.04,1.99,-12.81,-13.3,-14.56
8.61,3.03,2.07,-17.43,-17.92,-17.92
8.32,3.28,2.3,-22.26,-22.68,-22.68
7.84,3.49,2.33,-25.2,-25.2,-25.2
7.35,3.56,2.32,-27.16,-27.3,-27.3
7.2,3.56,2.22,-29.12,-29.12,-29.4
7.17,3.84,2.12,-35,-35,-35.84
7.07,4.04,2.16,-42.49,-42.49,-43.47
6.61,4.14,2.1,-48.02,-49.84,-49.84
5.99,4.28,2.1,-53.97,-53.97,-55.79
5.01,4.2,1.96,-58.66,-58.66,-58.66
3.94,4.33,1.85,-63.98,-63.98,-65.38
3,4.89,2.18,-70.91,-70.91,-70.91
1.91,5.1,2.39,-77,-77,-77
0.83,5.4,2.41,-83.09,-83.79,-83.79
0.17,6,2.74,-90.02,-90.93,-90.93
-0.58,5.78,3.29,-96.39,-99.96,-99.96
-1.06,5.38,3.39,-105.91,-107.17,-109.55
-2.59,5.14,4.13,-127.75,-127.75,-127.75
-3.73,4.78,4.45,-140,-140,-140
-5.25,4.29,5.07,-156.94,-158.41,-158.41
-4.74,3.51,5.52,-166.67,-167.86,-167.86
-7.53,-1.32,6.39,-193.48,-194.18,-194.18
-7.94,-1.5,7.54,-199.43,-199.43,-200.76
-7.46,-1.7,7.78,-210.28,-215.25,-217.91
-6.34,-3.4,6.81,-237.23,-237.23,-239.68
-5.98,-4.8,5.49,-257.6,-257.6,-257.6
-5.49,-6.02,4.13,-280.35,-280.35,-280.35
-5.73,-7.37,3.41,-293.23,-297.57,-297.57
-6.08,-9.18,2.3,-314.02,-314.02,-316.68
-6.71,-11.22,2.08,-338.1,-338.1,-340.2
-7.23,-15.7,1.96,-350.35,-350.35,-351.8
-6.06,-20.23,1.76,-346.78,-346.78,-346.7
-4.75,-20.68,1.32,-323.47,-320.18,-320.1
-3.76,-18.75,0.97,-298.76,-294.91,-294.9
-3.1,-16.44,0.39,-265.44,-260.75,-260.7
-2.45,-14.93,-0.03,-226.73,-221.62,-221
-2.1,-13.67,-0.25,-185.85,-175.91,-170
-2.45,-13.33,-0.19,-146.44,-146.44,-132
-3.32,-13.78,0.21,-103.88,-103.88,-99.33
-4.1,-14.12,0.59,-58.31,-58.31,-58.31
-4.89,-14.11,0.67,-31.5,-26.88,-26.88
-5.37,-13.47,0.72,6.23,6.23,6.23
-5.52,-12.75,0.73,42.35,42.35,42.35
-5.44,-11.8,0.66,60.27,65.31,65.31
-5.3,-10.49,0.76,77.7,80.78,80.78
-5.33,-9,0.96,88.34,88.34,88.34
-5.29,-8.1,1.03,91.63,91.63,91.63
-5.33,-7.52,1.27,90.51,90.51,90.51
-5.37,-7.17,1.31,86.45,86.45,86.45
-5.41,-7.24,1.36,78.05,77.21,77.21
-5.68,-8.02,1.23,71.33,70.35,70.35
-5.69,-8.46,0.94,63.98,63.98,63.42
-5.48,-8.55,0.9,60.2,60.2,59.71
-5.28,-8.88,0.73,54.95,54.95,54.95
-5.12,-9.05,0.73,49.7,49.7,49.7
-4.8,-9.16,0.72,45.92,44.8,44.8
-4.66,-9.3,0.77,42.98,42.98,42.91
-4.54,-9.64,0.66,44.24,44.24,44.24
-4.26,-10.29,0.27,49.49,49.49,49.49
-4.03,-10.41,0.38,52.92,52.92,53.41
-3.94,-10.54,0.83,59.22,59.22,59.22
-4.5,-10.75,1.35,65.87,65.87,65.87
-4.89,-10.67,1.99,75.88,77.14,77.14
-4.74,-10.24,1.99,82.74,86.1,86.1
-4.64,-9.73,2.15,90.93,93.1,93.1
-4.98,-9.62,2.39,95.76,96.11,97.09
-5.83,-9.57,2.88,98.84,98.84,99.26
-6.24,-9.11,3.18,100.66,100.73,100.73
-6.29,-8.36,3.63,100.31,100.31,99.96
-6.65,-7.4,3.93,96.74,96.74,96.46
-7.1,-7.24,4.21,95.13,95.13,95.2
-7.8,-7.79,4.58,99.12,99.12,99.12
-8.27,-7.95,4.79,102.83,104.16,104.16
-8.42,-7.29,5.08,106.89,107.73,107.73
-8.39,-6.4,5.18,110.74,111.09,111.09
-8.21,-5.53,5.36,116.2,116.2,116.76
-8.38,-4.9,5.56,121.31,121.31,121.87
-9,-4.08,5.89,124.74,124.74,125.16
-9.47,-3.47,5.79,128.38,128.38,128.38
-9.6,-2.65,5.67,130.48,130.48,130.62
-9.33,-1.67,5.8,129.99,129.99,129.99
-9.39,-0.66,5.82,126.84,126.84,126.84
-9.54,0.17,5.78,124.74,124.6,124.6
-9.56,0.9,5.72,123.97,123.97,123.97
-9.27,1.7,5.47,122.08,122.08,122.08
-8.77,2.64,5.19,118.16,118.16,117.39
-8.23,3.86,4.94,109.55,109.55,109.55
-8.02,4.41,4.83,101.01,101.01,101.01
-8.1,4.87,4.59,94.99,94.99,94.99
-7.82,5.03,4.27,92.61,91.84,91.84
-6.98,5.35,3.98,90.02,90.02,89.11
-6.1,6.02,3.81,84.21,84.21,84.21
-5.67,7.12,3.8,73.99,73.99,73.99
-5.25,7.03,3.5,64.19,64.19,64.19
-4.81,6.92,3.31,61.67,61.67,61.18
-4.37,7.56,3.32,56.14,56.14,55.23
-3.59,7.7,3.13,46.76,45.78,45.78
-2.91,7.63,2.82,41.79,41.79,41.79
-2.38,7.48,2.67,38.29,38.29,38.29
-1.47,7.5,2.7,35.98,18.06,35.56
-0.7,7.34,2.57,33.39,33.39,33.39
-0.13,7.24,2.41,33.04,33.04,33.04
0.4,7.05,2.3,33.18,33.46,33.46
1.29,6.92,2.24,33.25,33.25,33.25
2.09,7.03,2.2,31.08,31.08,31.08
2.77,6.7,2.06,28.91,28.49,28.49
3.46,6.02,1.77,26.46,26.46,26.46
4.3,5.69,1.73,25.27,24.92,24.92
5.26,5.28,1.66,20.58,20.58,20.58
6.5,4.8,1.57,13.23,13.23,11.83
7.17,3.65,1.51,1.68,1.68,0.91
7.3,3.04,1.57,-2.8,-3.43,-3.43
7.11,2.61,1.64,-6.44,-7.21,-7.21
7.25,2.43,1.67,-8.26,-9.17,-9.17
7.69,2.45,1.67,-10.99,-10.99,-10.99
7.94,2.81,1.82,-15.19,-15.19,-15.19
7.98,2.99,1.82,-17.92,-18.69,-18.69
7.8,3.14,1.73,-19.53,-19.53,-19.53
7.11,4.12,1.86,-15.75,-15.54,-15.54
6.8,4.53,1.97,-15.75,-16.03,-16.03
6.54,4.53,1.88,-16.8,-16.8,-17.01
6.18,4.48,1.81,-17.85,-17.85,-17.85
5.96,4.72,1.81,-19.46,-19.46,-19.46
5.22,4.92,2.04,-29.89,-29.89,-29.89
4.53,4.76,1.99,-34.93,-34.93,-34.93
3.85,4.81,2.06,-38.85,-38.85,-38.85
2.91,4.87,2.48,-46.27,-46.27,-46.27
1.9,5.04,2.39,-51.45,-51.45,-51.45
1.23,5.14,2.27,-55.93,-56.49,-56.49
0.71,5.09,2.6,-59.64,-60.48,-61.88
-0.23,4.91,2.68,-66.01,-66.92,-66.92
-1.01,4.96,2.91,-74.48,-75.18,-75.18
-2.08,5.1,3.26,-78.61,-80.57,-80.57
-3,4.62,3.43,-83.93,-86.66,-86.66
-4.6,4.52,3.91,-94.57,-94.57,-94.57
-5.7,4.4,4.3,-102.62,-103.46,-103.46
-5.7,3.91,4.45,-112.63,-113.75,-113.75
-5.89,3.09,4.97,-125.79,-125.79,-128.24
-8.39,1.29,4.91,-142.87,-142.87,-145.18
-8.08,1.25,4.76,-161.07,-161.07,-161.07
-6.88,0.42,6.1,-173.04,-178.29,-178.29
-8.12,-2.26,5.19,-199.15,-199.15,-202.02
-9.19,-4.62,4.9,-224.28,-224.28,-224.28
-9.76,-6.96,4.65,-235.2,-238.91,-238.91
-10.56,-9.27,4.71,-252.77,-252.77,-258.5
-11.9,-11.75,5.56,-277.97,-277.97,-284
-11.73,-15.31,6.03,-298.9,-298.9,-298
-10.63,-16.83,5.69,-298.62,-297.99,-297
-8.95,-15.68,4.81,-292.67,-291.48,-291.4
-7.84,-15.39,3.15,-272.23,-272.23,-268.9
-6.18,-14.96,2.26,-249.76,-240.73,-236
-4.77,-14.48,1.39,-210.7,-210.7,-194.5
-4.33,-14.62,1.38,-166.6,-166.6,-149.7
-4.12,-13.7,1.92,-122.71,-122.71,-117.3
-4.33,-12.88,2.96,-74.13,-74.13,-69.86
-4.91,-12.73,3.5,-42.21,-42.21,-38.71
-5.49,-12.63,3.53,-14.91,-14.91,-14.91
-5.79,-12.06,3.76,4.34,4.34,6.72
-5.92,-11.21,3.84,23.59,23.59,23.59
-6.06,-9.83,3.77,31.08,33.04,33.04
-6.09,-8.24,3.39,38.08,39.34,39.34
-6.08,-6.92,3.24,42.63,42.63,42.63
-6.13,-6.24,3.34,43.61,43.61,43.61
-6.5,-6.18,3.11,44.52,44.73,44.73
-7.04,-6.31,2.91,45.85,45.92,46.62
-7.64,-6.7,2.71,48.09,48.37,48.37
-7.98,-7.42,2.59,51.03,51.45,51.45
-7.9,-7.93,2.41,54.25,54.81,54.81
-7.66,-8.07,2.23,57.89,58.45,58.45
-7.14,-8.09,2.04,59.71,59.99,59.99
-6.72,-8.06,1.92,59.36,59.08,59.08
-6.39,-8.33,2.03,56.56,56.35,56.35
-5.82,-9.25,1.93,51.8,51.8,51.8
-5.58,-9.05,2.13,49.42,48.65,48.65
-5.78,-8.94,2.51,46.69,46.69,46.34
-6.14,-9.62,2.57,46.9,46.9,46.9
-6.57,-10.24,2.64,52.22,52.22,52.22
-6.38,-10.04,2.61,58.24,59.15,59.15
-6.39,-9.38,2.86,62.16,62.72,63.49
-6.82,-9.24,3.21,65.38,65.73,65.73
-8.48,-8.21,4.18,83.86,84.21,84.21
-9.52,-8.17,4.67,87.99,88.34,88.34
-9.43,-7.47,4.84,91.7,92.68,93.1
-10.56,-6.3,5.99,101.85,101.85,101.85
-10.78,-5.76,5.87,114.1,114.1,114.1
-10.65,-5.31,5.63,123.55,126.21,126.21
-10.18,-3.78,5.53,132.86,132.86,132.86
-9.73,-2.17,5.67,135.52,135.45,135.45
-10.46,-0.94,6.14,133.98,133.98,133.84
-10.21,-0.23,5.79,133.07,133.07,133.07
-9.87,0.61,5.45,133.14,133.14,133.14
-8.95,3.21,4.96,122.01,122.01,122.01
-8.8,4.09,4.53,112.28,111.37,111.37
-8.29,4.44,4.2,106.33,104.23,103.25
-7.63,5.23,3.8,94.43,94.43,93.03
-6.74,5.77,3.58,80.78,80.78,78.82
-6.06,6.22,3.29,65.38,65.38,63.49
-5.55,6.49,3.22,54.11,50.75,49.07
-5.49,6.34,2.97,41.93,39.41,38.36
-4.71,6.13,2.89,30.8,30.8,30.8
-3.63,6.07,2.63,24.15,23.17,23.17
-2.81,6.35,2.53,14.63,13.79,13.79
-2.02,6.36,2.41,9.59,9.59,9.59
-1.13,6.14,2.34,4.97,4.97,4.97
-0.61,6.04,2.32,3.78,3.78,3.78
0.06,6,2.27,4.2,4.48,4.48
0.68,6.01,2.34,5.67,6.3,6.3
1.89,6.27,2.24,11.76,12.11,12.11
2.45,6.17,2.25,13.65,14.21,14.21
3.5,6.05,2.28,14.84,14.91,15.12
4.83,6,2.27,14.77,14.63,14.63
5.59,5.92,2.22,12.39,12.39,11.97
6.49,5.68,2.21,10.22,9.59,9.59
6.92,5.21,2.15,8.26,7.98,7.98
6.97,4.91,2.02,7.98,8.05,8.05
7.15,5,1.97,7.91,7.84,7.84
7.47,5.06,1.91,5.88,5.46,5.46
7.68,4.87,1.78,1.26,1.26,0.7
7.78,4.8,1.73,-2.66,-2.66,-3.01
7.4,4.52,1.69,-4.9,-4.9,-5.04
6.94,4.43,1.78,-5.88,-6.37,-6.72
6.56,4.66,1.93,-8.61,-8.89,-8.89
6.45,4.88,2,-11.48,-11.48,-11.83
6.27,5.03,2.15,-15.61,-15.61,-16.1
5.89,5.11,2.23,-17.99,-17.99,-18.2
5.49,5.22,2.25,-18.9,-18.9,-19.39
5.39,5.33,2.26,-20.3,-20.3,-20.58
5.5,5.51,2.34,-24.22,-24.22,-24.71
5.17,5.42,2.38,-27.72,-29.05,-29.75
4.85,5.39,2.44,-32.83,-33.74,-34.44
4.44,5.64,2.62,-37.03,-37.94,-38.29
3.6,5.8,2.6,-41.09,-41.09,-41.09
2.94,5.58,2.56,-45.85,-45.85,-45.85
2.46,5.48,2.59,-48.58,-48.58,-48.58
1.93,5.62,2.79,-50.96,-52.01,-52.01
1.06,5.58,2.9,-53.76,-55.16,-55.16
-0.24,5.61,3.01,-58.38,-58.38,-58.38
-0.99,5.48,3.16,-61.32,-61.46,-61.46
-1.25,5.12,3.41,-62.86,-62.86,-62.93
-2.29,5.19,3.5,-63.84,-63.84,-63.98
-3.67,4.97,3.61,-65.03,-65.03,-65.17
-4.09,4.57,3.78,-68.11,-68.11,-68.11
-4.58,4.23,4.25,-72.1,-72.1,-72.1
-5.46,4.15,4.43,-78.54,-78.54,-78.54
-6.49,3.37,4.76,-90.23,-90.23,-90.23
-6.94,1.71,5.11,-99.4,-99.4,-99.4
-8.13,0.6,4.76,-106.75,-108.08,-108.08
-8.84,0.03,4.97,-117.04,-118.79,-118.79
-8.87,-0.42,5.31,-140,-140,-143.01
-8.66,-1.59,5.26,-158.2,-164.43,-164.43
-9.56,-5.87,5.16,-181.16,-182.56,-182.56
-9.14,-7.99,4.26,-185.71,-185.71,-185.78
-9.5,-10.16,4.05,-186.2,-186.2,-186.2
-10.63,-12.44,4.67,-191.94,-192.71,-192
-10.61,-14.01,5.1,-196.7,-196.91,-196
-9.67,-14.79,5.02,-196.91,-196.77,-196.7
-9.15,-15.95,5.49,-195.23,-195.23,-194.7
-8.16,-16.12,5.4,-185.78,-185.78,-178.8
-6.58,-14.55,4.44,-157.43,-157.43,-157.4
-5.46,-12.69,3.54,-122.01,-122.01,-122
-4.6,-11.22,3.28,-103.04,-97.37,-97.37
-4.36,-11.29,3.35,-77.49,-77.49,-77.49
-4.07,-10.9,3.44,-49.56,-49.56,-46.41
-4.54,-10.21,3.55,-29.47,-29.47,-29.47
-5.35,-9.84,3.8,-7.84,-7.84,-7.84
-6.04,-10.14,4.08,4.2,4.2,4.2
-6.19,-9.75,3.88,16.52,17.5,17.5
-6.22,-8.6,3.59,21.49,21.91,21.91
-6.23,-7.79,3.39,23.8,23.8,23.8
-6.17,-7.42,3.3,25.41,25.41,25.41
-6.19,-7.35,3.2,27.44,28.14,28.14
-6.24,-7.19,2.97,29.68,30.38,30.38
-6.26,-7.01,2.76,31.43,31.64,31.78
-6.59,-7.58,2.73,34.16,34.44,34.44
-6.44,-7.43,2.73,35.14,35.14,35.21
-6.66,-7.64,2.87,34.93,34.93,34.93
-6.77,-7.98,2.97,36.12,36.4,36.4
-6.92,-8.46,3,38.08,38.08,38.64
-6.78,-8.68,2.82,40.67,40.67,40.67
-6.59,-8.84,2.74,43.05,43.26,43.26
-6.36,-8.74,2.99,45.36,45.5,45.5
-6.31,-8.68,3.28,45.78,45.78,45.85
-6.55,-8.52,3.51,45.92,46.34,46.34
-6.91,-8.71,3.54,48.86,48.86,50.12
-7.39,-9.46,3.42,55.51,55.51,55.51
-7.57,-9.44,3.73,63.49,63.49,63.49
-7.86,-8.78,4.12,63.7,63.35,63.35
-8.05,-8.32,4.34,59.99,59.99,59.99
-8.44,-8.42,4.28,62.37,62.37,62.86
-8.56,-8.36,4.35,66.92,68.74,69.65
-8.57,-7.75,4.59,74.06,74.69,74.69
-8.78,-7.1,4.74,76.58,76.93,76.93
-9.05,-6.34,4.83,77.77,77.77,78.4
-9.97,-5.52,5.32,80.57,80.57,80.85
-10.5,-5.49,5.24,85.54,85.54,85.54
-10.53,-4.81,5.08,90.09,91.42,91.42
-10.3,-3.74,4.95,95.9,95.9,95.9
-10.52,-2.68,5.23,99.47,99.61,99.61
-11.05,-1.72,5.41,100.66,101.78,101.78
-10.85,-1,5.25,104.3,106.05,106.05
-10.46,0.13,5.04,107.8,108.01,108.01
-9.74,1.72,4.74,105.35,105.35,105.35
-9.18,3.11,4.43,97.93,97.93,97.02
-9,3.81,4.12,88.83,88.83,88.83
-8.96,4.46,3.92,82.11,82.11,82.11
-8.15,4.93,3.54,74.06,74.06,71.89
-7.21,5.57,3.2,66.5,65.38,63
-6.07,6.15,3.03,53.69,52.15,52.15
-5.91,6.61,2.94,42.07,39.48,38.15
-6.34,6.79,2.71,33.04,33.04,31.43
-5.83,6.3,2.37,31.5,31.5,31.5
-1.11,6.87,2.27,12.32,11.13,11.13
-0.47,6.85,2.11,5.53,5.32,5.32
0.06,6.51,2.08,4.97,5.25,5.25
0.31,6.17,1.93,8.96,8.96,9.31
0.97,5.95,1.84,11.62,12.25,12.39
2.02,6.01,1.82,12.6,12.39,11.97
3.25,6.11,1.77,9.8,8.54,8.54
4.19,5.99,1.67,4.9,3.64,3.64
4.71,5.62,1.67,0.49,-0.35,-0.35
4.92,5.13,1.66,-1.61,-1.61,-1.61
5.15,4.94,1.58,-0.77,-0.56,-0.56
5.58,5.24,1.47,-0.42,-0.42,-0.56
6.29,5.54,1.49,-4.13,-4.13,-4.76
6.82,5.6,1.42,-8.96,-8.96,-8.96
6.93,5.42,1.34,-13.72,-14.21,-14.21
6.95,5.33,1.35,-15.89,-16.87,-16.87
6.8,5.33,1.47,-18.41,-18.76,-19.32
6.37,5.77,1.75,-21.14,-21.07,-21.07
6.21,6.04,1.94,-21.35,-21.49,-21.49
5.99,6.24,2.03,-21.7,-21.42,-21.42
5.68,6.23,2.09,-20.3,-19.95,-19.95
5.74,6.26,2.2,-17.43,-17.43,-17.36
6.09,6.52,2.46,-19.81,-19.81,-19.81
5.9,6.43,2.42,-20.65,-20.65,-20.65
5.47,6.69,2.49,-20.37,-20.37,-20.3
5.15,6.76,2.57,-21.07,-21.07,-21.07
4.66,6.55,2.34,-23.17,-23.17,-23.17
4.54,6.25,2.3,-24.64,-24.64,-24.64
4.41,6.3,2.29,-26.74,-27.16,-27.16
3.89,6.18,2.51,-31.15,-31.15,-31.64
2.99,5.94,2.46,-33.18,-33.18,-33.18
2.44,5.66,2.53,-34.65,-34.65,-34.65
2.1,5.75,2.79,-40.81,-40.81,-40.81
1.48,6.28,2.97,-47.6,-47.6,-47.6
0.5,6.29,3.27,-56.77,-57.61,-57.61
-0.56,5.54,3.15,-60.76,-61.11,-61.11
-0.8,5.13,3.19,-65.59,-65.59,-66.43
-3.48,4.21,3.93,-86.94,-86.94,-86.94
-4.13,3.49,4.03,-92.47,-92.47,-92.47
-5.53,3.5,4.41,-96.18,-97.65,-97.65
-6.25,3.33,4.73,-103.25,-103.25,-103.25
-7.26,2.34,5.14,-110.95,-110.95,-110.95
-8.52,0.39,5.06,-111.65,-111.16,-111.16
-8.55,-0.41,4.94,-108.85,-107.31,-107.31
-8.78,-0.63,5.7,-108.43,-108.43,-108.43
-9.26,-1.16,6.28,-123.06,-123.06,-123.06
-9.2,-2.79,6.28,-132.65,-132.65,-132.65
-8.19,-4.16,5.85,-137.41,-137.41,-137.41
-7.98,-5.82,5.51,-142.87,-142.87,-142.87
-8.92,-7.47,5.37,-151.06,-151.06,-152.25
-9.23,-8.32,5.42,-164.78,-164.78,-164.78
-9.04,-9.93,5.42,-181.72,-183.68,-183.68
-8.86,-12.11,5.73,-197.89,-199.92,-199.9
-8.53,-14.29,5.8,-211.54,-212.59,-212.5
-7.59,-15.47,5.46,-216.65,-217.28,-217.4
-6.43,-15.04,4.52,-214.97,-214.97,-214.1
-4.56,-14.05,2.98,-175.56,-175.56,-175.5
-3.78,-13.12,3.15,-88.69,-88.69,-84.84
-3.95,-12.66,3.24,-59.01,-52.15,-52.15
-4.33,-11.83,3.41,-29.68,-26.81,-26.81
-4.61,-10.93,3.39,-7,-4.34,-4.34
-4.91,-10.12,3.35,11.41,15.05,16.8
-5.2,-9.47,3.35,25.13,26.11,26.11
-5.21,-8.79,3,34.58,34.58,35.56
-5.38,-8.02,2.59,40.6,40.6,41.23
-5.6,-7.45,2.43,45.92,45.92,45.92
-5.79,-7.03,2.61,46.13,46.13,46.13
-5.78,-6.87,2.48,44.17,44.17,44.17
-5.99,-7,2.31,42.49,41.79,41.79
-6.13,-7,2.1,37.94,37.94,37.31
-5.96,-6.92,2.1,29.82,29.82,29.82
-5.76,-7.13,2.25,24.78,23.45,23.45
-5.58,-7.49,2.22,19.46,18.06,18.06
-5.54,-7.45,2.22,13.37,13.37,11.62
-5.69,-8.87,1.93,3.99,3.99,3.99
-5.51,-9.13,1.95,6.3,6.3,6.3
-5.44,-9.36,2.29,7.28,7.21,7.21
-5.57,-9.43,2.7,6.86,6.86,6.86
-5.96,-9.76,2.67,9.59,9.59,10.36
-6.12,-10.38,2.43,16.52,16.52,17.71
-5.99,-10.63,2.68,28.14,28.14,28.14
-5.97,-10.53,3.11,33.11,33.11,33.11
-6.71,-10.38,3.78,36.61,36.61,37.17
-7.45,-10.55,3.88,42.42,42.42,42.42
-8.01,-11.15,3.63,56.84,58.66,58.66
-8.31,-11.1,3.69,88.76,72.17,72.17
-8.85,-10.46,3.97,74.41,73.99,73.99
-8.66,-9.54,4.65,70.28,69.3,69.3
-8.99,-8.83,5.14,68.25,68.25,68.25
-9.86,-9.31,5.14,74.62,74.62,77.28
-9.46,-9.36,5.18,86.45,86.45,86.45
-8.76,-7.87,5.53,95.55,95.55,95.55
-8.85,-6.68,5.83,96.18,96.18,96.18
-9.65,-5.42,6,108.78,108.78,108.78
-9.38,-4.57,5.96,121.17,142.17,125.65
-7.38,-2.74,5.63,131.04,132.44,133.07
-8.42,-1.18,5.56,135.38,135.8,136.22
-8.64,-0.17,5.3,140.21,140.21,140.21
-8.86,0.77,5.07,147,147,147
-7.97,1.52,4.69,150.64,150.64,150.64
-6.51,2.87,4.36,148.89,147.14,147.14
-5.43,4.76,4.19,137.27,137.27,137.27
-5.41,5.92,4.15,119.84,119.84,119.84
-5.97,6.16,3.82,111.16,111.16,111.16
-5.64,6.34,3.45,105,105,103.95
-4.45,6.72,3.02,94.92,94.92,91.49
-2.88,7.28,2.81,78.89,78.89,78.89
-2.24,7.82,2.63,55.16,55.16,55.16
-2.16,7.07,2.01,34.16,34.16,32.34
-1.23,7.17,1.79,19.53,19.53,18.27
-0.32,7.27,1.87,3.85,3.85,3.85
0.72,7.02,1.78,-12.39,-13.23,-13.23
1.31,6.63,1.75,-16.73,-16.73,-16.73
1.92,6.41,1.76,-18.2,-18.2,-18.2
2.64,6.11,1.79,-17.5,-17.5,-17.5
3.65,6.25,1.92,-18.2,-18.2,-18.2
4.83,6.2,2.03,-21.7,-21.7,-21.7
5.3,6.53,2.21,-23.24,-23.24,-23.24
5.32,6.92,2.32,-24.71,-24.85,-24.85
5.02,6.93,2.31,-23.8,-23.1,-23.1
5.19,6.78,2.39,-20.65,-20.65,-19.74
5.78,7.31,2.7,-15.54,-15.54,-15.33
5.38,6.97,2.59,-13.02,-13.02,-12.46
5.26,6.51,2.47,-8.82,-8.82,-8.4
5.36,6.3,2.5,-7.21,-7.21,-7.21
5.69,6.03,2.69,-9.31,-9.31,-9.31
6.03,5.59,2.81,-10.92,-11.34,-11.34
6.05,5.17,2.91,-13.72,-14.07,-14.07
5.72,5.12,2.94,-16.8,-17.29,-17.29
5.32,5.18,2.9,-21.56,-21.56,-21.91
4.99,5.13,2.81,-24.64,-24.64,-26.74
4.72,5.06,2.73,-30.8,-30.8,-31.5
4.52,5.32,2.8,-38.29,-39.55,-39.55
4.19,5.75,2.86,-47.39,-47.39,-48.44
3.73,6.05,3.13,-57.96,-57.96,-58.94
2.68,5.92,3.07,-65.45,-65.45,-65.45
1.83,5.78,3.08,-74.48,-75.39,-75.39
0.94,5.63,3.25,-78.33,-79.1,-79.1
0.41,5.14,3.33,-77.63,-77.21,-77.21
-0.19,4.78,3.46,-75.32,-75.32,-75.25
-0.89,4.6,3.56,-74.9,-74.9,-74.76
-0.85,4.78,4,-74.55,-74.34,-74.34
-1.31,4.52,4.35,-74.34,-74.34,-74.41
-3.14,3.82,4.76,-78.4,-78.4,-78.96
-4.27,3.27,4.79,-81.2,-81.2,-81.2
-4.53,2.66,4.91,-82.6,-82.6,-82.95
-5.25,2.09,4.88,-85.68,-85.68,-86.17
-7.68,0.89,5.36,-89.46,-89.46,-89.46
-8.6,-0.43,5.35,-87.29,-87.29,-87.29
-7.79,-0.79,5.3,-84.77,-84.77,-84.77
-9.18,-1.87,6.18,-92.61,-93.94,-93.94
-9.82,-2.47,6.35,-99.89,-103.39,-103.39
-9.8,-3.26,6.45,-114.73,-114.73,-114.73
-9.11,-4.71,5.99,-135.38,-135.38,-135.38
-9.58,-7.47,5.77,-144.41,-146.23,-146.23
-9.75,-8.33,5.27,-149.45,-149.45,-150.5
-10.4,-9.38,5.42,-155.19,-155.19,-157.5
-10.51,-10.19,5.76,-165.76,-165.76,-165
-10.14,-12.18,5.51,-172.41,-172.41,-172
-9.51,-12.93,5.31,-172.27,-172.27,-172.1
-8.71,-13.12,4.93,-169.54,-169.54,-169.1
-8.15,-13.15,4.36,-162.19,-162.19,-162.1
-7.14,-12.77,3.96,-152.18,-152.18,-152.1
-6.32,-12.58,3.41,-129.08,-129.08,-129
-6.04,-12.25,3.32,-109.2,-109.2,-109.2
-6.04,-11.61,3.59,-81.76,-78.68,-78.68
-6.07,-11.47,3.81,-56.63,-53.41,-53.41
-6.47,-11.3,3.68,-37.52,-28.56,-28.56
-6.93,-10.51,3.46,-15.19,-12.81,-12.81
-7,-9.51,3.21,4.27,5.74,5.74
-6.97,-8.77,3.1,13.86,14.77,14.77
-6.89,-7.98,2.99,20.51,21.28,21.28
-6.72,-7.43,2.9,24.5,24.85,24.85
-6.55,-6.72,2.79,26.81,26.88,26.88
-6.42,-6.53,2.63,25.62,25.62,25.27
-6.78,-7.03,2.59,23.87,23.24,23.17
-7,-7.46,2.53,22.82,22.82,22.47
-6.91,-7.59,2.52,23.03,23.03,23.03
-6.59,-7.37,2.5,22.47,22.47,22.47
-6.45,-7.62,2.73,16.45,16.24,16.24
-6.57,-8.1,2.76,16.45,16.59,16.59
-6.69,-8.88,2.67,18.41,18.9,18.9
-6.77,-9.31,2.66,21.98,22.4,22.4
-6.86,-10.05,2.76,27.16,27.16,27.86
-6.95,-10.35,2.82,32.9,32.9,32.9
-6.91,-10.54,2.76,41.58,41.58,41.58
-7.14,-10.53,3.1,49.28,49.98,49.98
-7.45,-10.52,3.32,55.16,55.93,55.93
-7.93,-10.71,3.44,59.92,60.83,62.3
-8.71,-10.79,3.62,66.15,66.85,66.85
-8.77,-10.42,3.74,71.75,72.31,72.31
-8.92,-10.05,3.89,73.85,74.41,74.41
-9.05,-9.12,4.3,74.69,74.69,74.62
-9.57,-8.39,4.59,74.97,74.97,75.39
-9.92,-8.4,4.44,79.8,81.55,81.55
-9.9,-7.68,4.68,86.31,86.31,87.22
-9.64,-6.06,4.73,89.39,89.39,89.39
-9.89,-4.97,4.98,89.81,89.88,89.88
-10.14,-4.28,4.99,92.05,92.75,92.75
-9.93,-3.79,4.93,99.47,99.47,100.38
-9.86,-2.49,4.86,104.58,104.58,105.42
-9.13,-1.09,4.61,109.9,109.9,109.9
-9.08,-0.01,4.71,110.46,110.46,110.46
-8.3,1.45,4.34,107.8,107.8,107.8
-6.81,2.56,4.16,101.36,101.36,101.36
-6.38,3.79,3.88,87.85,87.85,87.85
-5.56,4.39,3.88,77.35,77.35,77.35
-6.08,5.32,4.01,62.51,62.51,62.51
-6.5,5.73,3.93,54.88,54.88,54.18
-4.78,5.78,3.3,47.67,45.71,45.71
-3.19,6.71,3.41,36.33,32.27,32.27
-2.09,6.94,3.33,19.81,19.81,15.96
-2.07,6.73,3.19,6.65,6.65,6.65
-2.67,6.61,3.05,5.39,5.6,5.6
-2.98,6.54,3.08,11.55,12.32,12.32
-1.99,6.77,3.07,13.51,13.51,13.51
-0.38,7.12,3.08,4.55,4.55,4.55
1.02,7.08,3.04,-3.92,-6.23,-6.23
1.93,6.71,3.06,-11.97,-11.97,-13.3
2.23,6.34,3,-14.98,-14.98,-14.98
2.23,6.47,3.08,-13.44,-13.44,-13.44
2.38,6.59,3.16,-10.43,-9.87,-9.87
2.9,6.62,3.08,-7.49,-6.44,-6.44
3.38,6.92,3.24,-5.67,-5.74,-5.39
3.44,6.95,3.26,-4.55,-4.2,-4.2
3.65,6.85,3.29,-2.38,-1.54,-1.54
3.83,6.95,3.41,-0.49,-0.28,0.14
3.76,6.79,3.55,1.26,1.54,2.59
3.22,6.52,3.45,6.16,7.07,8.68
3.57,6.65,3.48,12.67,13.3,14
3.91,6.71,3.41,19.81,20.16,20.16
4.43,6.49,3.27,21.98,21.98,21.77
4.68,6.25,3.19,20.37,19.53,18.9
4.65,5.99,3.13,14.7,14.7,14.7
4.15,5.72,3.07,9.8,9.52,9.52
3.48,5.56,3.02,7.42,6.16,6.16
2.88,5.56,2.99,3.08,2.38,0.91
2.52,5.82,3.01,-3.15,-3.92,-3.92
2.18,5.86,2.94,-10.43,-10.92,-10.92
1.83,5.62,2.74,-14.7,-14.7,-15.26
1.45,5.63,2.63,-19.53,-19.53,-20.23
0.9,5.69,2.74,-24.64,-24.64,-24.64
0.1,5.72,2.64,-28.14,-28.14,-28.14
-0.57,5.95,2.77,-29.12,-29.47,-29.47
-1.07,5.81,2.9,-32.2,-32.2,-33.67
-1.46,5.87,2.97,-40.04,-40.04,-40.04
-1.59,6.1,3.13,-48.16,-48.93,-48.93
-4.6,5,3.47,-54.6,-54.6,-54.88
-5.75,4.55,3.59,-59.64,-59.64,-59.64
-5.85,4.03,3.84,-63.63,-65.31,-65.31
-6.27,3.71,4.26,-73.15,-73.15,-73.15
-7.7,2.79,4.55,-85.89,-85.89,-85.89
-8.98,0.49,4.85,-90.86,-91.77,-91.77
-9.12,-0.89,4.71,-92.33,-92.26,-92.26
-9,-1.74,4.96,-94.92,-94.92,-95.9
-10.1,-2.9,5.23,-108.5,-108.5,-108.5
-9.95,-4.02,4.95,-119.35,-119.35,-119.35
-9.39,-5.82,4.47,-126.35,-126.35,-126.35
-9.27,-7.68,4.19,-134.26,-134.26,-134.26
-9.52,-9.48,4.32,-147.28,-147.28,-147.28
-9.96,-11.46,4.55,-156.73,-159.74,-159.7
-9.86,-13.38,4.84,-167.3,-167.3,-169.1
-9.41,-15.17,5.04,-173.67,-174.02,-174
-8.4,-15.53,4.97,-174.37,-174.09,-174
-6.88,-14.72,4.25,-169.12,-169.12,-169.1
-3.72,-10.94,3.03,-102.06,-102.06,-102
-3.8,-11.22,3.1,-81.83,-81.83,-81.83
-4.2,-11.11,3.08,-60.83,-60.83,-60.83
-4.96,-10.82,3.2,-45.71,-45.71,-45.71
-5.35,-10.56,3.46,-29.68,-29.68,-29.68
-5.59,-10.27,3.5,-22.26,-19.95,-19.95
-5.57,-9.37,3.17,-14.35,-12.81,-12.81
-5.44,-8.29,2.91,-8.75,-8.75,-7.63
-5.35,-7.73,2.73,-3.15,-3.15,-2.31
-5.55,-7.7,2.6,2.94,4.55,4.55
-5.85,-7.69,2.43,9.8,9.8,11.69
-6.22,-7.98,2.34,18.2,19.18,19.18
-6.18,-8.1,2.32,28.07,29.19,29.19
-6.35,-8.35,2.25,36.68,37.8,37.8
-6.22,-8.12,2.31,43.19,43.19,43.19
-6.19,-8.03,2.54,45.71,45.71,45.92
-6.16,-8.3,2.64,46.27,46.55,46.69
-6.08,-8.58,2.66,47.67,47.67,47.67
-6.2,-9.01,2.54,50.82,50.82,50.82
-6.2,-9.14,2.62,53.48,53.48,53.48
-6.25,-9.19,3,54.32,54.32,54.32
-6.65,-9.99,3.32,52.85,52.57,52.57
-6.94,-10.46,3.46,53.62,54.11,54.11
-6.96,-10.94,3.52,59.29,60.27,60.27
-6.83,-10.65,3.79,65.03,65.73,65.73
-7.23,-10.47,4.4,67.97,67.97,67.97
-8.07,-10.69,4.44,66.78,66.78,66.36
-9.07,-10.69,4.25,62.86,62.86,62.16
-9.82,-10.01,3.8,51.87,51.87,51.87
-9.13,-10.47,4.39,54.74,54.74,56.35
-9.47,-10.42,4.77,65.59,65.59,65.59
-9.38,-9.71,4.77,78.19,79.66,79.66
-9.52,-8.57,4.69,88.9,88.9,90.16
-9.86,-7.93,4.89,99.26,100.59,100.59
-10.28,-7.55,5.34,111.93,111.93,111.93
-10.39,-6.54,5.25,120.68,120.68,121.59
-9.75,-5.26,4.94,126.28,127.89,128.59
-9.38,-3.69,4.87,132.37,132.37,132.37
-9.7,-2.65,5.03,134.82,134.82,134.82
-9.47,-1.6,4.6,138.74,138.74,138.74
-8.72,-0.34,4.21,140.07,140.07,140.07
-7.94,1.12,4.03,133.63,132.23,132.23
-7.51,2.51,3.92,124.88,119.98,119.98
-7.96,3.29,3.91,112.28,108.57,108.57
-8.41,3.53,3.76,104.09,103.39,102.34
-7.73,3.84,3.32,100.24,100.24,99.96
-6.05,4.59,3.05,92.47,92.47,92.47
-4.61,5.9,3.19,81.34,77,77
-3.58,6.56,3.07,62.02,60.06,60.06
-3.52,6.59,2.85,48.44,48.44,47.11
-2.96,6.39,2.52,39.27,39.27,38.71
-1.9,6.23,2.27,34.72,34.72,34.3
-1.07,6.31,2.31,30.31,30.31,29.68
0.02,6.36,2.16,23.94,23.94,22.89
1.26,6.51,2.05,17.29,15.12,15.12
2.17,6.06,1.95,8.47,8.47,6.72
2.54,5.51,1.83,3.08,3.08,3.08
3.36,5,1.56,-1.12,-1.12,-1.12
4.74,5.04,1.49,-6.44,-8.96,-8.96
5.72,5.13,1.41,-17.99,-21.07,-21.07
5.96,4.97,1.33,-27.93,-27.93,-29.4
5.75,4.6,1.26,-31.5,-31.5,-31.5
6.02,4.76,1.24,-32.62,-32.62,-32.62
6.5,5.05,1.27,-35.28,-35.28,-35.28
6.38,5.15,1.45,-40.53,-40.53,-40.53
6.43,5.37,1.72,-39.34,-39.34,-39.34
6.26,5.77,1.9,-41.23,-41.23,-41.23
5.91,5.98,1.99,-41.93,-41.93,-41.93
5.11,5.84,2.08,-38.85,-38.85,-38.85
4.58,5.97,2.16,-36.75,-36.47,-36.47
4.25,6.28,2.42,-37.66,-37.66,-38.5
3.83,6.14,2.45,-41.86,-41.86,-42.98
3.04,5.86,2.7,-46.2,-46.69,-46.69
2.26,5.59,2.68,-47.53,-47.53,-47.53
1.89,5.38,2.51,-49.77,-50.61,-50.61
1.28,5.61,2.76,-55.93,-60.48,-60.48
0.3,5.44,2.95,-71.4,-71.4,-71.4
-0.53,5.13,3.14,-81.41,-81.41,-82.11
-2.24,4.4,3.24,-84.7,-85.54,-85.89
-3.43,4.54,3.7,-90.86,-90.86,-90.86
-4.42,4.29,4.48,-103.46,-105.07,-105.07
-4.15,3.97,4.3,-112.84,-117.46,-117.46
-4.82,3.21,4.36,-127.05,-128.24,-128.24
-5.81,2.48,5.05,-137.48,-138.88,-138.88
-7.19,1.26,5.19,-147.28,-148.54,-148.54
-7.32,0.83,5.29,-160.3,-160.3,-161.91
-7.17,-0.2,5.49,-168.91,-171.78,-173.25
-6.7,-1.65,5.65,-181.51,-181.51,-182.77
-6.89,-3.2,4.98,-190.75,-190.75,-190.75
-6.88,-4.98,4.48,-192.5,-192.29,-192.29
-6.22,-5.91,4.18,-192.5,-192.5,-193.69
-6.48,-6.91,5.36,-209.09,-209.09,-209.09
-6.43,-8.93,5.73,-235.83,-235.83,-235.83
-6.46,-12.55,5.26,-255.36,-255.36,-255.3
-5.81,-15.67,4.96,-265.02,-266.21,-266.2
-5.68,-16.26,4.42,-276.43,-276.43,-277.6
-5.53,-16.09,4,-281.05,-281.68,-281.8
-5.08,-16.79,3.52,-275.87,-275.87,-275.8
-4.62,-17.45,2.91,-250.88,-246.89,-246.8
-4.22,-17.04,2.46,-214.83,-214.83,-214.8
-4.02,-15.91,2.24,-172.2,-166.67,-166.6
-3.87,-15.08,2.33,-128.38,-123.2,-123.2
-3.86,-13.82,2.67,-89.18,-84.7,-84.7
-5.42,-11.66,3.26,-1.89,-1.89,0.63
-5.87,-10.8,3.28,16.1,16.1,34.02
-6.22,-9.88,3.45,25.27,27.65,27.65
-6.53,-9.06,3.44,33.74,34.51,34.51
-6.63,-8.13,3.05,40.95,40.95,41.65
-6.82,-7.56,2.73,45.64,45.64,46.27
-7.05,-7.04,2.59,48.79,48.79,49.21
-7.26,-7.05,2.68,52.43,52.43,52.43
-7.33,-7.07,2.65,55.02,55.02,55.02
-7.43,-6.95,2.5,55.51,55.51,55.51
-7.59,-7.14,2.26,53.55,53.55,53.55
-7.47,-7.59,2.21,52.92,52.92,52.92
-7.23,-7.93,2.23,52.36,52.15,52.15
-7.13,-8.07,2.26,49.98,48.02,48.02
-7.19,-8.37,2.38,44.03,43.26,41.58
-7.12,-8.7,2.16,36.75,36.19,36.19
-6.82,-8.84,1.96,33.11,33.11,32.69
-6.88,-9.82,2.21,25.76,25.76,25.41
-6.95,-10,2.33,23.45,22.89,22.89
-7.23,-10.3,2.29,22.12,22.12,22.54
-7.35,-10.74,2.16,25.9,25.9,25.9
-8.05,-9.28,2.19,32.9,31.92,31.92
-8.44,-9.14,2.37,22.26,21.42,21.42
-7.88,-10.29,3.08,43.61,45.85,45.85
-7.61,-9.2,3.64,63,63,64.33
-7.36,-8.14,4.04,69.65,71.05,71.75
-7.74,-7.64,4.37,75.32,75.32,77.63
-8.21,-7.36,4.66,82.04,82.04,82.95
-8.53,-6.58,5.02,91.35,91.35,92.4
-8.58,-5.92,4.98,99.75,99.75,100.66
-8.63,-4.87,5.07,104.58,105.98,106.33
-8.52,-3.45,5.1,108.64,108.92,108.92
-9.35,-0.99,5.07,112.98,112.98,112.98
-9.5,-0.02,4.92,113.82,113.75,113.75
-9.36,1.43,4.8,111.02,110.46,110.46
-9,2.45,4.6,105.14,105.14,105.14
-8.74,3.39,4.49,99.33,99.33,96.46
-8.59,4.23,4.41,91.28,91.28,87.92
-7.98,4.96,4.22,79.8,79.8,79.8
-5.55,6.07,3.62,52.43,52.43,52.43
-4.81,6.32,3.53,41.02,41.02,41.02
-4.15,6.41,3.44,34.72,34.72,34.72
-3.5,6.35,3.34,28.7,28.28,28.28
-2.99,6.41,3.25,25.83,25.83,25.41
-2.69,6.53,3.13,23.94,23.94,23.94
-1.93,6.34,2.99,24.57,24.92,24.92
-1.08,6.1,2.88,26.39,26.39,27.02
0,6.31,2.9,27.44,27.44,27.51
0.65,6.3,2.68,27.44,27.44,27.72
1.2,5.87,2.44,29.54,29.54,29.54
1.73,5.63,2.3,33.95,33.95,33.95
2.51,5.94,2.3,35,34.93,34.93
3.7,6.45,2.39,32.83,32.83,31.5
-9.34,-2.44,2.03,0.98,0.98,1.12
-9.39,-2.4,2.02,1.75,1.75,1.75
-9.28,-2.18,2.01,1.96,1.96,1.89
-9.3,-2.01,2.02,1.61,1.61,1.54
-9.37,-1.97,2.05,1.47,1.4,1.4
-9.47,-2.08,2.04,1.26,1.26,1.26
-9.57,-2.28,2.05,1.4,1.4,1.47
-9.63,-2.32,1.98,1.61,1.61,1.61
-9.6,-2.19,1.97,0.98,0.91,0.91
-9.56,-2.14,1.98,0.56,0.35,0.35
-9.52,-2.15,2.02,0.21,0.21,0.14
-9.58,-2.16,2.02,-0.07,-0.14,-0.14
-9.55,-2.16,2.01,-0.7,-0.77,-0.77
-9.5,-2.18,2.01,-0.63,-0.63,-0.63
-9.49,-2.22,2.05,-0.49,-0.42,-0.42
-9.65,-2.3,2.1,-0.28,-0.28,-0.28
-9.99,-2.62,2.16,0.42,0.63,0.63
-10.36,-2.87,2.1,3.36,3.36,3.36
-10.6,-2.35,2.32,11.83,11.83,11.83
-10.61,-1.9,2.37,11.9,11.9,11.9
-10.65,-1.74,2.31,12.46,12.46,12.46
-10.83,-1.69,2.25,15.33,15.33,15.33
-11,-1.73,2.23,18.13,18.83,18.83
-11.33,-1.68,2.23,21.35,21.35,21.35
-11.42,-1.7,2.19,23.1,23.1,23.1
-11.3,-1.52,2.13,25.06,25.06,25.06
-11.21,-1.23,2.07,25.83,25.83,25.83
-10.88,-0.71,2.04,25.13,25.13,25.13
-10.65,-0.46,1.89,22.96,22.82,22.82
-10.62,-0.84,1.8,23.17,23.17,23.31
-10.79,-1.29,1.71,26.88,26.88,26.88
-10.76,-1.42,1.66,29.4,30.03,30.03
-10.66,-1.18,1.58,30.03,30.03,29.61
-10.39,-0.9,1.59,28.35,28.35,28.35
-10.25,-0.97,1.56,26.67,26.18,26.18
-10.06,-0.63,1.56,23.52,23.52,22.26
-9.81,-0.22,1.55,17.64,17.64,17.64
-9.49,-0.13,1.45,13.09,12.46,12.46
-9.35,-0.44,1.23,14.14,14.14,14.35
-9.46,-0.24,1.25,14.63,14.63,14.63
-9.44,0,1.25,14,14,13.58
-9.48,-0.22,1.17,14.07,14.07,14.07
-9.59,-0.14,1.03,16.73,16.87,16.87
-9.83,0.44,1,16.73,16.38,16.38
-9.82,1.29,0.93,12.39,11.69,11.69
-9.82,1.59,0.78,7.98,7.63,7.63
-9.78,2.02,0.64,3.64,3.64,3.15
-9.86,2.44,0.58,-0.98,-1.75,-1.75
-9.96,2.24,0.46,-5.18,-5.18,-5.18
-9.96,2.01,0.36,-3.43,-2.59,-2.17
-9.83,2.12,0.41,-0.28,-0.28,0
-9.76,2.23,0.42,1.89,1.89,2.24
-9.65,1.96,0.6,7.63,7.77,7.77
-9.68,2.08,0.67,8.4,8.68,8.68
-9.27,2.38,0.72,9.52,9.73,10.08
-8.76,2.95,0.64,10.57,10.5,10.5
-8.64,3.51,0.79,8.19,7.98,7.98
-8.22,4.62,1.03,0.91,0.91,-0.21
-7.86,5.04,0.96,-3.36,-3.36,-4.41
-7.37,5.19,0.85,-6.93,-6.93,-7.35
-6.94,4.97,0.83,-6.79,-6.79,-6.79
-6.8,4.87,0.9,-2.87,-2.87,-2.87
-6.74,5.09,0.93,-0.35,-0.35,-0.35
-6.5,5.2,0.89,0.91,1.12,1.12
-6.38,5.39,0.84,1.47,1.47,1.47
-6.1,5.83,0.96,1.89,1.89,1.89
-5.94,5.9,0.94,4.13,4.13,4.55
-5.74,6.35,1.04,6.16,6.16,6.16
-5.56,6.86,1.13,5.25,4.76,4.76
-5.26,7.02,1.2,3.57,3.57,3.99
-4.91,7.02,1.05,12.67,12.67,12.67
-4.73,7.35,1.09,13.79,13.79,13.79
-4.6,7.36,1.01,13.37,13.37,13.37
-4.65,7.1,0.97,14.14,14.14,14.14
-4.75,7.2,0.95,15.05,15.05,15.05
-4.96,7.34,0.92,13.23,13.23,13.02
-5,7.4,0.91,11.27,10.92,10.15
-5.32,7.38,0.85,8.12,7.7,7.7
-5.57,7.48,0.77,3.43,3.01,3.01
-5.79,7.57,0.79,0.84,-0.56,-0.56
-6.03,7.53,0.81,-3.01,-3.29,-4.2
-6.28,7.53,0.75,-6.58,-6.93,-6.93
-6.63,7.4,0.8,-9.66,-9.66,-9.66
-6.79,6.99,0.84,-9.73,-9.73,-9.73
-6.9,6.95,0.88,-8.05,-8.05,-8.05
-6.99,7.1,0.97,-8.68,-9.17,-9.17
-6.99,7.15,1.01,-11.13,-11.13,-11.13
-6.92,7.04,1.13,-12.46,-12.46,-12.46
-6.68,6.88,1.09,-11.69,-11.48,-11.48
-6.51,6.85,1.06,-10.29,-10.08,-10.08
-6.45,6.82,1.14,-8.61,-8.61,-8.61
-6.53,6.77,1.21,-7.21,-7.21,-7.21
-6.46,6.59,1.18,-4.62,-4.62,-4.62
-6.38,6.39,1.08,-2.17,-2.17,-2.17
-6.46,6.64,1.09,0.14,0,0
-6.59,6.93,1.15,-1.05,-1.26,-1.26
-6.55,7.14,1.21,-3.15,-3.15,-3.15
-6.38,7.21,1.16,-6.37,-6.37,-6.37
-6.04,7.02,1.03,-9.45,-9.45,-9.45
-5.87,6.73,1.05,-11.48,-11.48,-11.48
-6.03,6.26,1.14,-12.95,-13.37,-13.37
-6.35,5.9,1.2,-14.49,-14.49,-14.49
-6.51,5.44,1.22,-15.19,-15.19,-15.19
-6.73,5.13,1.26,-14.49,-14.42,-14.42
-7.17,5.01,1.33,-14.07,-14.07,-13.72
-7.78,4.96,1.43,-12.67,-12.67,-12.67
-8.33,4.99,1.43,-11.97,-11.83,-11.83
-8.6,5.06,1.37,-10.99,-10.99,-10.99
-8.73,4.98,1.34,-10.01,-9.66,-9.66
-8.84,5.11,1.34,-8.05,-7.77,-7.77
-9.15,5.13,1.39,-7.63,-7.63,-7.35
-9.29,4.94,1.39,-5.67,-5.67,-5.67
-9.26,5.02,1.37,-4.69,-4.69,-4.69
-9.21,5.15,1.44,-5.74,-6.3,-6.3
-9.14,4.82,1.51,-7.98,-7.98,-8.05
-8.88,4.42,1.48,-6.51,-6.51,-5.46
-8.28,4.63,1.55,-0.07,-0.07,-0.07
-7.93,4.13,1.6,-1.26,-0.49,-0.49
-7.82,4.18,1.62,2.17,2.17,2.17
-7.79,4.27,1.7,0.14,0.14,0.14
-7.72,4.02,1.7,-2.31,-2.31,-2.31
-7.79,3.86,1.72,-3.92,-3.99,-3.99
-7.98,3.5,1.66,-2.94,-2.94,-2.87
-8.33,3.37,1.65,-2.52,-2.73,-2.73
-8.48,3.31,1.5,-2.66,-2.66,-2.66
-8.51,3.13,1.51,-1.47,-1.19,-1.19
-8.96,3.24,1.41,-0.56,-0.7,-0.7
-9.13,3.22,1.43,-1.26,-1.26,-1.68
-9.19,3.01,1.45,-2.31,-2.31,-2.31
-9.17,2.8,1.36,-1.12,-0.7,-0.7
-9.3,2.93,1.44,-0.91,-0.91,-1.19
-9.37,2.57,1.4,-4.48,-4.48,-4.48
-9.49,2.51,1.41,-5.18,-5.18,-5.18
-9.57,2.53,1.45,-7.42,-7.42,-8.4
-9.67,2.26,1.49,-12.25,-12.25,-12.25
-9.73,1.35,1.37,-10.36,-9.1,-9.1
-9.76,1.35,1.35,-5.95,-5.18,-5.18
-9.8,1.43,1.44,-3.15,-3.08,-3.08
-9.9,1.26,1.42,-1.47,-1.26,-1.26
-9.98,1.35,1.54,-2.52,-2.8,-2.8
-10,1.25,1.54,-5.25,-5.6,-5.6
-9.99,1,1.55,-7.28,-7.28,-7.28
-9.83,0.89,1.56,-5.25,-5.25,-4.9
-9.72,0.75,1.58,-3.08,-3.08,-2.94
-9.72,0.42,1.65,-1.54,-1.54,-1.26
-9.79,0.3,1.65,0.56,0.91,0.91
-9.78,0.29,1.67,3.01,3.01,3.22
-9.64,0.42,1.72,3.5,3.22,3.08
-9.62,0.75,1.76,1.05,1.05,-0.42
-9.64,0.69,1.75,-2.8,-2.8,-3.15
-9.83,0.28,1.69,-4.9,-4.9,-5.11
-9.8,0.1,1.62,-4.34,-4.34,-3.99
-9.73,0.19,1.67,-3.64,-3.64,-3.78
-9.98,-0.1,1.56,-4.55,-4.55,-4.27
-10.02,-0.37,1.6,-2.59,-1.47,-0.84
-9.94,-0.32,1.67,1.82,1.82,2.94
-9.99,-0.14,1.68,3.78,3.78,3.71
-9.95,1.2,1.75,1.33,1.33,0.91
-10.02,-0.09,1.72,-1.19,-1.19,-1.4
-9.77,-0.59,1.85,-1.33,-1.33,-1.33
-9.73,-0.49,1.84,-3.5,-4.62,-4.62
-9.53,-0.4,1.89,-5.88,-6.23,-6.58
-9.41,-0.42,1.98,-8.12,-8.12,-8.4
-9.37,-0.69,2,-10.22,-10.22,-10.22
-9.27,-0.91,2.03,-9.1,-9.1,-8.89
-9.38,-0.98,2.07,-7,-7,-7
-9.37,-1,2.06,-6.58,-6.58,-6.58
-9.38,-0.98,2.04,-7.7,-7.7,-7.7
-9.28,-1.01,2.01,-8.47,-8.47,-8.75
-9.29,-1.27,2.04,-9.1,-9.1,-9.1
-9.49,-1.69,2.19,-9.24,-9.24,-9.03
-9.66,-2.02,2.14,-8.26,-7.7,-7.35
-9.9,-2.22,2.17,-5.04,-5.04,-4.62
-9.94,-2.14,2.14,-2.87,-2.87,-2.87
-9.92,-1.94,2.18,-3.78,-3.78,-3.78
-9.95,-2.02,2.15,-6.09,-6.09,-6.09
-9.83,-1.95,2.19,-7.63,-7.63,-7.77
-9.7,-1.91,2.26,-9.52,-9.52,-9.52
-9.71,-2.24,2.32,-10.29,-10.22,-10.22
-9.72,-2.71,2.3,-9.1,-8.75,-8.75
-9.58,-2.89,2.35,-6.58,-6.58,-6.58
-9.44,-2.85,2.47,-5.6,-5.74,-5.74
-9.29,-2.71,2.5,-6.65,-7.35,-7.35
-8.89,-2.5,2.47,-9.1,-9.45,-10.36
-8.88,-2.82,2.5,-12.74,-12.74,-12.88
-9.1,-3.55,2.57,-11.2,-11.2,-11.2
-9.12,-3.88,2.68,-6.58,-6.58,-6.58
-8.97,-3.73,2.66,-3.08,-2.73,-2.73
-9.07,-3.68,2.72,-1.47,-1.47,-1.61
-9.13,-3.56,2.7,-1.61,-1.61,-1.75
-9.03,-3.46,2.75,-3.5,-3.5,-3.5
-9.16,-3.43,2.77,-6.3,-6.3,-6.3
-9.3,-3.66,2.74,-9.59,-9.94,-9.94
-9.22,-3.98,2.69,-9.24,-9.24,-9.24
-9.16,-3.99,2.67,-6.09,-5.88,-5.88
-9.27,-4.01,2.65,-4.06,-4.06,-4.06
-9.42,-4.17,2.74,-2.03,-2.03,-1.89
-9.54,-4.36,2.76,-0.07,0.7,1.05
-9.75,-4.38,2.82,2.24,2.24,2.38
-9.75,-4.11,2.8,1.75,1.75,1.54
-9.64,-3.74,2.79,-0.63,-0.63,-0.63
-9.62,-3.6,2.76,-1.82,-1.89,-1.89
-9.71,-3.74,2.57,4.2,5.04,5.04
-9.8,-3.86,2.58,7.49,7.49,8.4
-9.95,-4.02,2.59,10.92,10.92,10.92
-10,-3.87,2.58,13.37,13.37,13.37
-10.05,-3.83,2.66,12.67,12.67,12.67
-10.19,-3.73,2.65,10.36,10.36,10.36
-10.15,-3.75,2.68,8.54,8.19,8.19
-10.23,-3.7,2.62,7.7,7.63,7.63
-10.22,-3.64,2.58,7.98,8.33,8.33
-10.16,-3.46,2.57,8.89,9.45,9.45
-10.18,-3.33,2.49,10.78,11.83,11.83
-10.19,-3.24,2.42,14.84,14.84,14.84
-10.26,-2.96,2.41,17.22,17.5,17.5
-10.42,-2.65,2.32,18.76,18.76,18.76
-10.6,-2.26,2.28,18.41,18.41,18.41
-10.67,-2.07,2.15,18.13,18.13,18.13
-10.88,-1.7,2.11,16.59,16.59,16.59
-11.04,-1.47,1.97,13.86,13.65,13.65
-11.03,-1.33,1.98,12.39,12.39,12.18
-11.34,-1.75,1.8,13.72,14.84,14.84
-11.62,-1.89,1.76,18.06,18.06,18.62
-11.47,-0.9,1.75,18.48,18.48,18.13
-11.14,-0.29,1.63,16.1,16.1,15.75
-10.8,0.22,1.56,12.81,12.81,12.81
-10.51,0.59,1.47,8.26,7.7,6.3
-10.25,0.56,1.37,3.71,3.29,3.29
-9.91,0.52,1.28,1.47,1.33,1.33
-9.54,0.49,1.23,1.82,1.96,2.17
-9.27,0.58,1.12,3.57,3.99,3.99
-8.85,1.11,1.09,7.42,7.42,7.77
-8.54,1.45,1.09,8.05,8.05,8.05
-8.24,1.56,1.03,6.65,6.65,6.86
-7.84,1.6,1,9.17,9.17,9.17
-7.56,1.98,1.03,11.55,11.55,11.55
-7.56,2.31,1.02,11.55,11.41,11.41
-7.56,2.78,1.07,9.8,9.8,9.03
-7.36,3.48,1.09,4.69,4.69,4.69
-7.25,3.95,1.09,-1.33,-1.33,-1.33
-7.18,3.69,0.99,-2.94,-2.94,-2.94
-7.13,3.94,1.01,-2.24,-2.24,-2.24
-7.08,4.47,1.07,-3.29,-3.29,-3.29
-7.11,4.52,1.13,-2.1,-2.1,-2.1
-7.12,5.07,1.16,-0.77,-0.7,-0.7
-6.97,5.57,1.14,-1.96,-1.96,-2.1
-6.77,5.85,1.08,-2.52,-2.66,-2.59
-6.5,5.89,1.09,-1.75,-1.75,-1.4
-6.21,6.19,1.15,2.66,2.66,3.01
-5.96,6.43,1.3,4.41,4.41,4.41
-5.9,6.54,1.46,4.83,4.9,4.9
-5.95,6.5,1.52,4.48,4.62,4.62
-6.03,6.41,1.47,5.39,5.39,5.39
-6.04,6.44,1.4,5.6,5.6,5.6
-5.97,6.53,1.32,5.53,5.53,5.53
-5.82,6.7,1.28,6.37,6.58,6.58
-5.77,7,1.31,6.86,7.07,7.07
-5.61,7.24,1.31,7,7,7
-5.66,7.23,1.31,5.39,5.25,5.25
-5.72,7.12,1.34,4.13,3.64,3.64
-5.81,7.05,1.4,2.8,2.52,2.17
-5.89,6.93,1.36,1.12,1.12,1.12
-5.86,6.65,1.3,1.19,1.68,1.68
-5.96,6.56,1.29,2.52,2.66,2.8
-6.09,6.67,1.37,2.8,2.8,2.8
-6.25,6.78,1.37,2.03,1.68,1.68
-6.33,6.95,1.35,0.7,0.42,-0.21
-6.47,7,1.37,-2.59,-2.8,-2.8
-6.52,6.81,1.4,-4.34,-4.34,-4.55
-6.68,6.7,1.36,-4.2,-4.2,-4.13
-6.92,6.71,1.33,-3.08,-3.08,-3.08
-7.1,6.71,1.35,-3.08,-3.08,-3.08
-7.08,6.82,1.39,-4.13,-4.13,-4.13
-7.03,6.78,1.43,-6.16,-6.16,-6.16
-7.03,6.63,1.52,-8.12,-8.12,-8.12
-6.98,6.23,1.58,-6.16,-6.16,-6.16
-6.99,6.15,1.6,-5.11,-4.9,-4.9
-7.1,6.15,1.63,-3.78,-3.71,-3.71
-7.03,6.14,1.61,-2.24,-2.24,-2.1
-6.88,6.25,1.6,-0.98,-0.98,-0.84
-6.82,6.33,1.57,-1.05,-1.05,-1.12
-6.88,6.39,1.62,-2.24,-3.08,-3.43
-6.99,6.28,1.7,-5.39,-5.39,-6.16
-7.13,5.98,1.73,-7.07,-7.07,-7.07
-7.36,5.87,1.7,-7.77,-7.77,-7.77
-7.54,5.7,1.6,-7.77,-7.77,-7.77
-7.55,5.58,1.65,-6.79,-6.79,-6.79
-7.56,5.48,1.72,-5.67,-5.18,-5.18
-7.59,5.47,1.71,-4.27,-4.27,-4.27
-7.77,5.56,1.79,-4.27,-4.27,-4.41
-7.75,5.48,1.82,-4.62,-4.62,-4.62
-7.73,5.41,1.8,-4.55,-4.55,-4.55
-7.88,5.43,1.78,-4.2,-4.27,-4.27
-7.98,5.33,1.76,-4.48,-4.48,-4.48
-7.95,5.19,1.7,-4.27,-3.99,-3.92
-7.82,5,1.74,-2.73,-2.52,-2.52
-8.04,4.73,1.89,-3.29,-3.29,-3.29
-7.93,4.53,1.91,-2.17,-2.17,-2.17
-8,4.57,1.9,-1.33,-1.33,-1.33
-8.2,4.73,1.94,-3.85,-3.85,-4.13
-8.19,4.52,1.9,-5.25,-5.25,-5.25
-8.18,4.44,1.85,-5.04,-5.39,-5.39
-8.28,4.6,1.88,-8.47,-8.47,-8.47
-8.4,4.39,1.85,-13.02,-13.02,-13.02
-8.41,3.88,1.82,-12.25,-12.25,-12.25
-8.52,3.56,1.87,-7.98,-7.98,-7.98
-8.73,3.66,1.91,-5.95,-5.95,-5.95
-8.45,3.32,1.9,1.68,1.68,1.82
-8.59,3.54,2.01,1.61,1.61,1.26
-8.76,3.62,2.06,-2.94,-2.94,-4.27
-8.68,2.66,2.04,-5.04,-5.04,-5.04
-8.84,2.79,2.04,-2.94,-2.73,-2.73
-8.96,2.92,2,-2.66,-2.94,-2.94
-9.08,2.95,2.06,-4.83,-4.83,-4.83
-9.11,2.81,1.98,-6.09,-6.09,-6.09
-9.2,2.68,1.97,-6.72,-7,-7
-9.22,2.36,1.89,-7.21,-7,-7
-9.16,2.04,1.79,-4.76,-4.34,-4.34
-9.21,2.05,1.85,-1.33,-1.12,-1.12
-9.25,2.18,1.87,-1.12,-1.12,-1.33
-9.2,1.46,1.9,-2.38,-2.38,-2.38
-9.29,1.53,1.96,-5.18,-5.18,-5.18
-9.44,0.63,2.01,-7.98,-7.63,-7.63
-9.67,0.61,1.97,-5.74,-5.6,-5.67
-9.59,1.13,2.02,-7.98,-7.98,-7.98
-9.41,1.19,1.97,-13.23,-13.23,-13.23
-9.37,0.43,1.91,-13.23,-12.74,-12.74
-9.57,-0.12,1.97,-9.87,-9.38,-9.38
-9.61,-0.32,2.05,-7.98,-7.98,-7.98
-9.86,-0.76,2.2,-8.47,-8.47,-8.33
-10.1,-1.22,2.23,-8.33,-8.12,-7.77
-10.01,-0.92,2.25,-7.28,-7.28,-7.28
-9.75,-0.39,2.38,-10.43,-10.99,-10.99
-9.53,-0.64,2.32,-13.37,-13.44,-13.44
-9.46,-1.13,2.31,-12.6,-12.6,-12.6
-9.54,-0.99,2.35,-11.06,-11.06,-11.06
-9.88,-1.23,2.35,-12.81,-12.81,-12.81
-10.09,-1.88,2.16,-11.27,-10.64,-10.64
-10.12,-1.99,2.15,-6.37,-5.81,-5.81
-10.27,-1.82,2.29,-4.48,-4.48,-4.48
-10.36,-2.21,2.23,-3.71,-3.71,-3.36
-10.29,-2.44,2.22,0.14,0.14,0.63
-10.08,-2.19,2.29,2.45,2.45,2.45
-9.9,-1.95,2.44,0.91,0.91,0.91
-9.64,-2.02,2.43,-1.61,-1.61,-1.61
-9.54,-2.04,2.45,-3.71,-3.71,-3.71
-9.41,-2.18,2.47,-5.6,-5.6,-5.6
-9.26,-2.27,2.5,-5.81,-5.74,-5.74
-9.29,-2.48,2.52,-5.18,-5.18,-4.97
-9.41,-2.65,2.55,-4.34,-4.27,-4.27
-9.39,-2.73,2.59,-4.55,-4.55,-4.62
-9.34,-2.79,2.56,-4.62,-4.48,-4.48
-9.3,-2.93,2.49,-3.64,-3.43,-3.29
-9.38,-3.05,2.41,-3.01,-3.01,-2.8
-9.33,-3.07,2.41,-3.15,-3.15,-3.15
-9.17,-2.86,2.44,-3.85,-4.62,-4.62
-9.1,-2.71,2.42,-6.86,-7.21,-7.21
-9.19,-3.01,2.34,-9.45,-9.45,-9.52
-9.26,-3.58,2.31,-9.1,-8.47,-8.19
-9.22,-3.69,2.39,-6.51,-6.51,-5.53
-9.14,-3.6,2.43,-3.99,-3.99,-3.99
-9.05,-3.5,2.46,-4.2,-4.2,-4.2
-8.92,-3.43,2.51,-5.95,-6.51,-6.51
-8.7,-3.52,2.55,-8.54,-8.89,-8.89
-8.71,-3.91,2.62,-9.73,-9.73,-9.73
-8.6,-4.21,2.69,-9.31,-9.17,-8.61
-8.42,-4.2,2.68,-7.56,-7.21,-7
-8.37,-4.09,2.79,-6.93,-7.21,-7.21
-8.57,-4.53,2.88,-8.33,-8.26,-8.26
-8.65,-4.74,2.91,-7.56,-7.56,-7.35
-8.58,-4.55,2.9,-6.58,-6.58,-6.44
-8.43,-4.14,2.97,-7.42,-7.7,-7.7
-8.52,-4.27,3.01,-11.41,-11.41,-11.55
-8.61,-4.59,2.95,-10.99,-10.71,-10.71
-8.53,-4.93,2.94,-5.46,-5.46,-4.69
-8.59,-5.12,3.03,-1.61,-1.61,-1.4
-8.78,-5.09,3.05,-0.63,-0.63,-0.63
-8.71,-5.11,3.09,-0.63,-0.56,-0.56
-8.52,-5.05,3.05,-0.91,-1.12,-1.12
-8.66,-5.35,3.11,-2.52,-2.66,-2.66
-8.78,-5.62,3.12,-1.89,-1.75,-1.75
-8.84,-5.52,3.13,-0.07,-0.07,0
-8.78,-5.15,3.11,1.05,1.05,0.98
-8.81,-4.88,2.98,1.89,1.89,2.03
-8.88,-4.88,2.95,4.13,4.13,4.48
-9.11,-4.74,3.02,6.51,6.51,6.51
-9.25,-4.69,3.01,7.84,7.84,7.84
-9.48,-4.73,3.04,9.17,9.17,9.17
-9.75,-4.93,3.01,9.87,9.87,9.87
-9.85,-5.15,3,10.92,11.48,11.48
-10.04,-5.15,3.02,12.67,12.67,12.95
-10.1,-4.91,3.01,13.3,13.3,13.3
-10.09,-4.62,2.91,13.16,13.16,13.16
-9.95,-4.5,2.87,13.58,13.93,13.93
-9.86,-4.4,2.81,14.98,14.98,14.98
-9.86,-3.96,2.7,14.98,14.84,14.84
-9.92,-3.7,2.62,12.74,12.74,12.74
-9.89,-3.78,2.55,11.97,11.97,11.97
-10.04,-3.96,2.58,12.04,12.04,12.11
-10.17,-3.9,2.46,12.25,12.25,12.25
-10.17,-3.25,2.34,10.5,10.5,10.5
-10.15,-3.09,2.23,8.12,8.12,8.12
-10.06,-3.26,2.12,8.47,8.82,8.82
-10.13,-3.69,2.05,10.99,12.53,12.53
-10.32,-3.7,2.07,14.56,14.56,14.56
-10.4,-2.69,2.04,13.79,13.79,13.79
-10.32,-2.08,1.96,10.64,10.64,10.29
-10.05,-1.89,1.82,8.75,8.75,8.75
-9.99,-1.77,1.74,6.79,6.51,6.51
-9.91,-1.34,1.78,4.83,3.99,3.99
-9.61,-0.93,1.84,3.22,2.94,2.94
-9.39,-0.87,1.78,2.66,2.73,2.87
-9.04,-0.72,1.74,4.48,4.48,4.83
-8.85,-0.64,1.81,5.95,5.95,5.95
-8.81,-0.46,1.91,7.21,7.21,7.21
-9.04,-0.05,2,4.34,4.34,4.34
-9.05,1.28,1.9,-1.05,-1.05,-1.96
-8.73,1.99,1.76,-10.22,-10.22,-10.22
-8.59,2.19,1.53,-13.3,-13.3,-13.3
-8.51,2.07,1.41,-10.92,-10.92,-10.92
-8.55,2.3,1.53,-6.23,-5.32,-5.32
-8.57,3.37,1.66,-5.88,-5.88,-6.16
-7.91,3.34,1.69,-1.33,-1.33,-1.33
-7.84,3.95,1.82,2.87,3.15,3.15
-7.76,4.6,1.97,2.73,2.73,2.73
-7.48,5.54,1.97,-0.84,-1.54,-1.54
-7.21,5.85,2.01,-6.72,-6.72,-7.77
-6.98,5.83,1.96,-8.4,-8.4,-8.47
-6.98,5.42,1.97,-5.46,-4.48,-4.48
-6.8,6.11,2.08,-0.49,-0.49,-0.7
-6.61,6.53,2.1,-1.75,-1.75,-1.75
-6.33,6.71,2.23,-2.59,-2.59,-2.59
-6.02,7.21,2.18,-5.53,-6.58,-6.58
-5.78,7.5,2.38,-10.92,-10.92,-11.55
-5.33,7.51,2.39,-14.42,-14.42,-14.49
-4.86,7.02,2.33,-9.45,-9.45,-9.45
-4.49,7.32,2.37,-6.3,-5.88,-5.88
-4.07,7.83,2.51,-5.81,-5.81,-5.81
-3.8,7.66,2.76,-4.34,-4.34,-4.34
-3.13,8.62,2.91,-9.52,-9.52,-10.29
-2.46,8.73,2.76,-13.37,-13.37,-13.23
-1.98,8.26,2.72,-10.78,-10.78,-10.43
-1.55,8.09,2.79,-8.61,-8.61,-8.47
-1.19,8.34,3.01,-8.54,-8.54,-8.68
-0.65,8.82,3.14,-10.99,-10.99,-11.41
-0.32,8.55,3.19,-12.88,-12.67,-12.39
-0.17,7.87,3.23,-9.03,-8.4,-8.4
-0.16,8.12,3.28,-5.74,-5.74,-5.6
-0.07,8.54,3.37,-5.81,-5.81,-6.02
-0.02,8.67,3.42,-7.21,-7.21,-7.35
-0.19,8.07,3.37,-7.14,-7.14,-7.14
-0.49,7.72,3.38,-2.38,-1.19,-1.19
-0.5,8.38,3.44,0.14,-0.14,-0.14
-0.5,9.1,3.5,-1.96,-2.24,-3.01
-0.73,8.81,3.44,-4.27,-4.13,-4.13
-1.05,8.63,3.44,-2.73,-2.73,-2.73
-1.08,9.09,3.43,-5.18,-5.18,-5.67
-1.16,8.78,3.26,-6.16,-5.39,-5.39
-1.37,8.29,3.26,-1.12,-1.12,0.21
-1.36,9.09,3.44,1.19,1.19,1.19
-1.44,9.68,3.5,-4.83,-6.65,-6.65
-1.56,9.27,3.44,-9.66,-9.66,-9.87
-1.49,8.93,3.37,-8.89,-8.89,-8.89
-1.45,8.96,3.37,-7.7,-7.7,-7.7
-1.77,9.01,3.46,-14.07,-14.35,-14.35
-2.1,8.74,3.87,-8.68,-8.68,-8.68
-2.13,8.58,3.93,-12.39,-12.39,-12.39
-2.19,8.26,4.07,-9.59,-9.59,-9.59
-1.99,8.37,4.19,-6.79,-6.51,-6.16
-1.9,8.67,4.21,-6.93,-6.93,-6.93
-1.81,8.82,4.18,-9.8,-9.8,-9.8
-1.85,8.34,4.07,-8.61,-8.61,-8.61
-1.91,8.5,4.05,-5.95,-5.95,-5.95
-1.9,9.18,4.06,-9.1,-9.66,-9.66
-2.05,9.06,4.01,-12.46,-12.74,-12.74
-2.22,8.93,3.89,-15.54,-15.82,-15.82
-2.64,9.05,3.95,-30.94,-30.94,-30.94
-2.91,8.44,4.09,-32.2,-32.2,-32.2
-3.39,8.46,4.09,-31.78,-31.99,-31.99
-4.05,9.54,4.28,-40.67,-40.67,-40.67
-4.68,7.86,4.67,-38.64,-38.64,-38.64
-5.29,8.06,5.02,-42.77,-43.26,-43.26
-5.06,7.15,5.17,-44.38,-44.38,-44.45
-4.64,6.79,5.41,-43.19,-43.19,-43.19
-4.59,6.48,5.74,-38.36,-38.36,-37.66
-4,6.27,6.04,-34.16,-32.27,-31.29
-2.94,5.65,6.28,-24.64,-21.56,-21.56
-1.97,5.6,6.61,-13.02,-13.02,-10.57
-1.47,5.93,6.86,-4.27,-4.27,-2.94
-1.02,7.08,7.17,-3.22,-3.22,-4.34
-0.6,7.21,7.24,-8.05,-8.05,-8.05
-0.6,6.89,7.24,-8.19,-8.54,-8.54
-1.07,7.13,7.2,-10.99,-13.16,-13.16
-1.36,6.59,7.12,-15.12,-15.12,-15.12
-1.27,5.87,7.03,-8.33,-8.33,-8.33
-2.56,6.04,6.92,4.41,5.04,5.04
-2.56,5.91,6.86,10.85,10.85,11.41
-2.43,6.39,6.88,13.72,13.65,13.3
-2.35,7.07,6.98,10.57,10.57,8.54
-2.22,6.97,6.97,5.67,5.67,5.18
-2.26,6.63,6.81,3.57,3.57,3.64
-2.28,6.66,6.79,3.5,3.5,3.57
-2.23,6.73,6.81,3.15,3.15,3.15
-2.12,6.36,6.83,4.76,4.76,7
-1.97,5.77,6.9,12.6,12.6,15.33
-1.79,5.99,6.95,23.52,24.43,24.43
-1.67,6.03,6.97,32.69,32.69,33.81
-1.63,5.66,6.9,42.14,42.14,43.75
-1.18,6.93,6.97,51.45,51.45,51.45
-1.03,7.41,6.89,49.14,49.14,49.14
-1.06,7.65,6.7,45.99,45.99,45.43
-1.12,7.51,6.39,41.3,41.3,41.3
-1.29,6.76,6.12,43.19,45.15,45.15
-1.25,6.68,5.74,55.16,55.16,56.42
-1.21,7.51,5.34,61.95,61.95,61.95
-1.41,8.15,5.01,59.85,59.85,59.85
-1.66,8.66,4.8,55.02,55.02,55.02
-1.83,8.96,4.53,44.1,44.1,44.1
-2.21,8.8,4.28,38.43,36.96,36.96
-2.73,8.51,4,33.53,32.83,32.83
-3.16,8.42,3.78,31.5,31.5,31.29
-3.15,8.73,3.64,29.89,29.61,29.61
-3.29,8.43,3.38,29.89,29.89,30.17
-3.3,8.46,3.29,32.13,32.48,32.69
-3.41,8.55,3.14,33.6,33.88,33.88
-3.46,8.9,3.22,33.74,33.74,33.32
-3.34,9.21,3.18,31.85,31.85,31.43
-3.13,9.17,3.15,27.44,27.44,26.88
-2.82,9.1,3.19,25.13,25.13,25.06
-2.56,9.07,3.2,24.64,24.57,24.57
-2.12,9.68,3.11,23.1,23.1,21.49
-1.8,9.69,2.93,18.48,18.48,18.48
-1.56,9.6,2.69,15.61,15.61,15.61
-1.37,10.19,2.57,1.4,0.21,0.21
-1.92,9.58,2.64,-9.45,-10.15,-10.15
-2.8,9.05,2.54,-12.67,-12.88,-12.88
-3.34,8.81,2.72,-13.65,-13.65,-13.58
-3.52,8.54,2.86,-13.51,-13.51,-13.3
-3.29,7.65,2.93,-7.35,-7.35,-6.16
-2.59,7.16,2.99,4.27,4.27,5.95
0.12,8.96,3.14,24.5,24.5,24.85
1.13,10.09,2.98,19.18,19.18,18.2
0.96,9.74,2.79,12.67,12.67,12.67
0.07,9.35,2.62,8.12,8.12,7.56
-1.17,8.98,2.48,2.94,2.94,2.94
-1.71,8.28,2.41,-0.63,-0.63,-0.63
-2.1,8.11,2.52,-1.54,-1.82,-1.82
-2.42,8.11,2.93,-5.67,-5.67,-6.02
-2.57,8.1,2.94,-6.72,-6.58,-6.44
-2.53,8.22,2.95,-5.39,-5.39,-4.48
-2.36,8.52,2.92,-2.59,-2.59,-2.24
-2.58,8.57,2.91,0.98,0.98,1.54
-2.99,8.71,2.92,5.46,5.46,5.95
-3.53,8.85,2.9,8.4,8.4,8.61
-4.1,9.18,2.9,8.26,7.7,7.42
-4.48,9.43,2.86,5.18,5.18,4.13
-4.64,9.36,2.72,0.77,0.35,0.35
-4.53,9.22,2.43,-1.68,-1.68,-1.75
-4.39,8.94,2.3,-1.33,-1.33,-1.05
-4.46,8.51,2.18,2.31,3.78,4.62
-4.51,8.28,2.28,8.26,8.26,10.22
-4.58,8.21,2.25,12.81,12.81,13.16
-4.82,8.05,2.23,15.82,16.45,16.87
-4.92,7.86,2.1,18.13,18.13,18.55
-4.56,8.19,1.95,17.36,17.36,17.36
-4.03,8.34,1.83,10.85,10.85,10.85
-3.59,8.42,1.83,4.55,2.24,2.24
-3.32,8.07,1.83,-4.06,-4.9,-4.9
-3.31,7.8,1.92,-12.18,-12.18,-12.18
-3.4,7.54,1.93,-16.38,-17.78,-17.78
-3.72,7.37,2.07,-21.7,-21.7,-21.7
-4.01,7.04,2.22,-26.39,-26.39,-26.39
-4.57,6.61,2.29,-26.95,-26.88,-26.88
-5.14,6.2,2.35,-24.08,-24.08,-23.59
-5.74,5.83,2.43,-20.51,-19.18,-18.27
-6.05,5.78,2.49,-14.63,-14.63,-12.74
-6.48,5.91,2.68,-10.78,-10.78,-10.36
-7.17,5.92,2.79,-10.08,-10.08,-10.08
-7.48,5.86,2.71,-9.24,-9.24,-9.24
-7.7,5.8,2.68,-10.5,-10.5,-10.5
-7.77,5.99,2.69,-12.6,-13.51,-13.51
-8.17,5.96,2.76,-17.29,-17.29,-18.69
-8.18,5.69,2.68,-21.42,-21.42,-21.42
-8.29,4.99,2.72,-20.86,-20.86,-20.86
-8.3,4.58,2.71,-17.92,-17.57,-17.57
-8.24,4.53,2.78,-16.31,-16.03,-15.75
-8.2,4.5,2.84,-15.19,-15.26,-15.26
-7.93,4.23,2.84,-14.49,-14.28,-14.28
-7.59,3.87,2.76,-12.53,-12.11,-12.11
-7.68,3.44,2.79,-8.33,-7.98,-7.98
-7.62,3.38,2.81,-5.95,-5.95,-5.67
-7.46,3.46,2.88,-5.18,-5.18,-5.18
-7.47,3.59,2.93,-7.56,-7.56,-7.56
-7.66,3.39,2.97,-10.15,-11.34,-11.34
-7.98,3.05,3.11,-14.28,-14.28,-15.26
-8.5,2.51,3.07,-17.64,-17.64,-17.64
-8.64,2.12,2.87,-17.64,-17.64,-17.64
-8.59,1.79,2.85,-15.61,-14.84,-14.84
-8.8,1.85,2.73,-10.15,-9.94,-9.94
-9.55,1.57,2.67,-9.38,-8.96,-8.96
-9.61,1.12,2.52,-3.92,-3.36,-3.36
-9.65,1.09,2.6,0.07,0.07,0.49
-10.23,0.76,2.56,2.59,2.59,2.59
-10.48,0.56,2.5,4.9,4.9,4.9
-10.48,0.86,2.45,6.86,6.86,6.86
-10.22,1.19,2.44,5.39,5.39,4.9
-10.14,0.89,2.52,-0.77,-0.77,-1.26
-10.37,0.59,2.59,-5.25,-5.25,-5.25
-10.51,0.44,2.57,-8.19,-8.61,-8.61
-10.34,0.28,2.57,-13.09,-13.09,-13.44
-10.09,0.08,2.51,-14.49,-14.56,-14.7
-9.83,-0.2,2.49,-14.7,-14.91,-14.98
-9.62,-0.42,2.65,-15.68,-15.68,-16.17
-9.56,-1.01,2.77,-16.52,-16.52,-16.52
-9.61,-1.64,2.69,-13.65,-13.65,-13.09
-9.35,-1.61,2.71,-8.19,-8.19,-8.05
-9.17,-1.45,2.88,-8.33,-8.33,-8.47
-9.17,-1.63,2.77,-8.75,-8.75,-8.68
-9.11,-1.67,2.8,-7.91,-7.91,-7.91
-9.06,-1.37,2.79,-9.38,-9.38,-9.38
-9.11,-1.76,2.74,-11.69,-11.69,-11.69
-9.3,-2.34,2.58,-9.17,-9.17,-9.17
-9.41,-2.56,2.61,-5.39,-5.39,-5.39
-9.37,-2.58,2.79,-4.62,-4.62,-4.62
-9.67,-3.18,2.76,-4.69,-4.69,-4.69
-9.88,-3.62,2.81,-2.59,-2.17,-2.17
-9.71,-3.41,2.81,-0.77,-0.77,-0.91
-9.47,-3.04,2.88,-3.92,-3.92,-3.92
-9.42,-2.95,2.8,-6.93,-6.93,-6.93
-9.64,-3.3,2.87,-8.47,-8.89,-8.89
-9.7,-3.8,2.85,-9.03,-9.03,-9.24
-9.44,-3.95,2.81,-9.73,-9.73,-9.94
-9.01,-3.59,2.77,-10.99,-10.99,-10.99
-8.63,-3.26,2.76,-14.7,-14.7,-14.7
-8.71,-3.68,2.82,-17.22,-17.5,-17.5
-8.71,-4.66,2.78,-16.87,-16.87,-16.38
-8.4,-5.4,2.72,-9.87,-9.87,-9.17
-8.09,-5.44,2.76,-5.32,-5.32,-5.04
-8.11,-5.29,2.71,-4.41,-4.41,-4.41
-8.26,-5.26,2.76,-4.9,-4.97,-4.97
-8.15,-5.38,2.76,-4.55,-4.48,-4.48
-8.21,-5.37,2.91,-4.62,-4.76,-4.76
-8.37,-5.32,2.86,-7.49,-7.49,-7.7
-8.4,-5.56,2.8,-8.82,-9.1,-9.17
-8.34,-5.55,2.71,-9.31,-9.31,-9.31
-8.3,-5.29,2.67,-9.94,-9.94,-9.94
-8.27,-5.2,2.63,-11.41,-11.9,-12.11
-8.21,-5.24,2.56,-12.6,-12.6,-12.46
-8.08,-5.43,2.61,-11.69,-11.69,-11.69
-8.24,-5.93,2.68,-9.94,-9.94,-9.1
-8.31,-6.5,2.53,-3.36,-3.36,-3.36
-8.19,-6.64,2.61,3.43,4.2,4.2
-8.08,-6.28,2.76,5.74,5.74,5.53
-8.07,-6.24,2.91,-0.98,-0.98,-0.98
-8.07,-6.17,2.84,-2.45,-2.45,-2.45
-8.15,-6,2.79,-3.36,-3.43,-3.43
-8.19,-6.05,2.78,-3.15,-3.15,-3.15
-8.79,-6.38,2.76,7.98,7.98,7.98
-8.75,-6.32,2.69,12.32,13.86,13.86
-8.66,-6.09,2.74,16.8,16.8,17.43
-8.83,-6.1,2.75,18.2,18.2,18.41
-9.36,-6.67,2.88,20.44,20.44,20.44
-9.39,-7.01,2.99,30.52,30.52,30.52
-9,-6.68,3.18,37.03,38.5,38.5
-8.44,-5.63,3.23,40.32,40.32,40.18
-7.89,-4.86,3.25,38.15,38.15,38.15
-7.09,-4.16,3.17,35,33.25,33.25
-6.32,-3.79,3.22,30.17,29.4,27.93
-5.8,-3.42,3.3,23.66,22.61,22.61
-5.6,-3.23,3.42,14.91,11.2,11.2
-5.75,-3.6,3.71,5.67,4.83,3.22
-5.86,-4.44,3.8,1.05,1.05,1.19
-6.06,-5.42,3.99,3.57,4.41,6.16
-6.26,-6.23,4.29,14,14,15.26
-6.26,-6.3,4.62,22.96,22.96,23.94
-6.09,-6.05,4.85,28.35,29.19,29.19
-6.2,-5.67,5.06,30.24,30.24,30.17
-6.35,-4.92,5.1,29.33,29.33,29.33
-6.52,-4.14,5.05,23.8,23.8,23.8
-6.7,-3.8,5.17,16.94,16.94,16.94
-7.27,-4.19,5.19,12.11,12.11,12.11
-7.36,-4.47,5.12,12.32,12.32,12.32
-7.25,-4.34,5.09,12.81,12.39,12.39
-7.34,-4.24,5.42,9.24,8.47,7.84
-7.5,-4.03,5.31,4.34,3.71,2.45
-7.5,-4.03,5.45,-0.63,-1.19,-1.19
-7.29,-4.33,5.41,-4.41,-4.55,-4.55
-7.17,-4.65,5.31,-3.5,-3.08,-3.08
-7.17,-4.94,5.37,4.83,4.83,5.81
-7.28,-4.83,5.44,10.71,12.39,13.16
-7.44,-4.39,5.53,16.73,16.73,16.73
-7.46,-3.95,5.65,18.13,18.13,18.13
-7.59,-3.62,5.7,17.92,17.92,17.92
-7.87,-3.4,5.79,16.59,15.89,15.89
-7.93,-3.03,5.8,14.14,13.72,12.95
-7.69,-3.21,5.86,11.27,11.27,10.99
-7.74,-3.36,5.86,10.01,10.01,10.01
-7.51,-3.09,5.82,9.8,9.8,9.73
-6.98,-3.02,5.92,7.56,7.56,7
-6.52,-2.8,6.03,2.66,2.66,1.05
-5.84,-2.53,6.08,-6.09,-6.09,-6.09
-5.32,-2.54,6.03,-15.47,-16.45,-16.45
-4.92,-2.25,5.98,-24.36,-25.55,-25.55
-5.28,-2.66,5.96,-31.85,-34.09,-35.07
-5.9,-3,5.64,-38.36,-38.36,-39.13
-6.53,-3.38,5.21,-38.64,-38.64,-38.08
-8.58,-4.91,4.9,-17.92,-17.92,-11.06
-9.29,-4.76,4.91,0.77,0.77,3.08
-9.61,-4.29,4.9,20.65,20.65,22.19
-9.64,-3.59,5.07,29.61,29.61,30.24
-9.27,-2.95,5.15,29.89,29.89,29.89
-8.79,-2.02,5.35,22.05,20.16,16.1
-8.54,-1.64,5.41,0.35,-2.1,-2.1
-7.96,-1.81,5.17,-16.73,-18.55,-18.55
-7.17,-2.57,4.89,-25.83,-28.77,-28.77
-6.49,-2.78,4.75,-33.04,-33.81,-33.81
-6.24,-3.04,4.8,-40.74,-41.51,-41.51
-7.09,-3.62,4.83,-43.12,-42.7,-42.7
-8.45,-4.67,4.96,-35.7,-33.88,-33.88
-10.22,-6.36,5.02,-18.76,-15.54,-15.54
-10.94,-6.95,5.18,18.41,18.41,22.26
-10.9,-6.19,5.11,41.51,48.51,51.8
-10.5,-5.25,5.32,65.66,65.66,72.45
-9.99,-4.14,5.5,80.99,80.99,84.63
-9.24,-3.14,5.93,88.97,88.97,88.97
-8.78,-2.49,6.13,87.92,87.92,87.92
-8,-2.53,6.37,84.49,84.49,84.49
-6.9,-1.99,6.49,80.99,80.15,80.15
-5.82,-1.63,6.69,74.06,68.25,68.25
-4.59,-0.86,6.84,55.65,46.62,46.62
-3.23,-0.55,7.13,31.01,28,21.77
-1.25,-1.36,7.58,8.82,8.82,6.72
-2.11,-2.45,7.84,-4.69,-5.04,-5.04
-1.82,-2.78,7.88,-6.23,-6.23,-5.95
-1.74,-3.27,8.09,-4.27,-4.27,-2.73
-1.82,-3.22,8.09,1.19,1.19,1.82
-2.47,-2.87,8.16,3.36,3.36,3.36
-3.47,-2.69,8.22,2.38,2.38,2.38
-4.17,-2.54,8.12,2.03,1.82,1.82
-4.63,-2.44,8.11,1.4,1.4,1.19
-5.05,-2.1,8.06,-1.26,-1.26,-1.26
-5.41,-1.77,8.06,-9.1,-9.1,-9.1
-5.41,-1.9,8.14,-15.12,-15.12,-16.03
-4.97,-2.02,8.02,-23.24,-23.24,-23.24
-4.25,-2.2,7.89,-27.09,-28.21,-28.21
-3.8,-2.06,7.46,-31.99,-31.99,-33.46
-3.34,-1.86,7.2,-39.41,-39.41,-39.41
-3.88,-2.23,7.05,-45.78,-45.78,-45.78
-4.96,-3.04,6.57,-47.04,-47.04,-46.62
-5.78,-3.22,5.93,-40.74,-39.69,-39.69
-6.05,-2.36,5.51,-33.32,-33.32,-32.69
-6.55,-1.89,5.68,-34.86,-34.86,-35.49
-7.78,-2.26,5.09,-38.85,-38.85,-38.78
-8.75,-2.15,4.63,-35.07,-35.07,-34.37
-8.69,-1.71,4.35,-33.81,-33.81,-34.16
-9.16,-1.48,4.16,-37.17,-38.08,-38.43
-10.88,-2.26,3.62,-36.61,-36.61,-36.61
-11.5,-2.87,3.28,-27.58,-25.83,-25.83
-11.67,-2.41,3.31,-13.65,-13.65,-12.6
-11.33,-2.23,3.23,-8.68,-8.68,-8.19
-11.13,-2.21,3.05,-3.43,-3.43,-2.59
-10.5,-2.02,3.13,0.21,1.19,1.4
-9.96,-1.66,3.21,1.68,0.84,0.14
-9.68,-1.21,3.56,-5.04,-5.04,-9.31
-9.75,-1.38,3.73,-16.94,-16.94,-18.2
-9.49,-1.67,3.72,-25.2,-25.76,-25.76
-9.23,-1.97,3.6,-27.86,-27.86,-28.14
-8.94,-1.86,3.63,-29.4,-29.4,-29.33
-8.96,-2,3.58,-28.42,-28.42,-28
-9.05,-2.59,3.54,-23.94,-23.94,-23.94
-8.85,-2.43,3.63,-16.24,-15.82,-15.82
-8.89,-2.24,3.61,-14,-13.86,-13.86
-9.1,-2.23,3.55,-12.53,-11.97,-11.97
-9.09,-2.34,3.47,-5.95,-5.95,-5.18
-8.89,-2.3,3.4,-1.47,-1.47,0.14
-8.72,-1.65,3.39,0.98,0.98,0.91
-8.73,-1.53,3.46,-3.78,-3.78,-4.34
-9.07,-1.81,3.26,-6.09,-6.09,-6.16
-9.2,-1.88,3.07,-4.97,-4.97,-4.83
-9.08,-1.82,2.77,-3.15,-3.15,-3.15
-8.79,-1.34,2.63,-3.5,-3.5,-3.78
-9.15,-1.59,2.5,-4.41,-4.41,-4.41
-9.55,-2.15,2.32,-0.56,-0.56,-0.56
-9.78,-2.24,2.26,5.88,5.88,5.88
-9.79,-2.19,2.16,10.78,11.48,11.48
-9.59,-1.67,2.22,13.16,13.16,12.95
-9.49,-1.29,2.34,11.55,11.55,10.36
-9.48,-1.5,2.25,8.89,8.89,8.75
-9.41,-1.55,2.25,8.33,8.33,8.33
-9.17,-1.28,2.32,7.14,6.16,5.74
-9.16,-0.95,2.4,1.75,1.75,-0.91
-9.33,-1.51,2.47,-11.9,-11.9,-12.25
-8.96,-1.81,2.65,-15.26,-15.26,-15.82
-9.1,-2.18,2.68,-16.1,-16.1,-16.1
-9.1,-2.2,2.12,-10.5,-10.5,-10.5
-9.27,-1.8,2.46,-8.54,-8.75,-8.75
-9.37,-1.5,2.52,-10.08,-10.08,-10.08
-9.59,-1.59,2.43,-10.29,-10.15,-10.15
-9.86,-1.06,2.5,-11.69,-12.11,-12.11
-9.95,-0.61,2.37,-17.29,-17.29,-17.92
-10.38,-0.59,2.14,-21.42,-21.42,-21.84
-10.94,-0.87,1.98,-23.1,-23.45,-23.52
-10.95,-0.48,1.85,-24.43,-24.43,-25.06
-10.92,-0.32,1.73,-27.44,-27.44,-27.44
-11.07,-0.31,1.66,-32.9,-32.9,-32.9
-10.91,-0.35,1.5,-35.35,-35.91,-35.91
-10.35,-0.55,1.26,-35.42,-35.42,-35.42
-9.99,-1.23,0.95,-29.4,-28.42,-28.42
-9.84,-1.34,1.1,-21.63,-21.63,-20.51
-9.65,-1,1.57,-14.28,-14.28,-14.28
-8.66,-0.57,1.52,-11.83,-11.83,-11.97
-8.37,-0.27,1.58,-14.28,-14.28,-14.28
-8.8,-0.36,1.78,-17.99,-17.99,-17.99
-9.31,-0.87,1.66,-18.69,-18.34,-18.34
-9.52,-1.37,1.5,-15.47,-13.3,-13.3
-9.59,-1.14,1.53,-7.98,-7.98,-7.98
-9.88,-1.11,1.56,-3.99,-3.43,-2.24
-9.96,-0.85,1.57,0.42,0.98,2.1
-10.18,-1.07,1.56,5.25,6.02,7.63
-10.19,-0.98,1.48,13.86,14.7,14.7
-10.17,-0.89,1.57,19.95,19.95,19.95
-10.19,-0.79,1.55,27.3,28,28
-9.91,-0.54,1.57,31.36,31.92,32.69
-9.69,-0.2,1.68,34.02,34.02,34.02
-9.62,0.05,1.79,32.13,31.64,31.64
-9.58,0.16,1.86,27.72,27.09,27.09
-9.51,0.17,1.86,23.94,23.1,23.1
-9.38,0.21,1.83,18.69,18.69,18.27
-9.28,0.24,1.8,16.31,16.31,15.33
-9.58,-0.08,1.86,11.9,11.9,11.9
-9.64,-0.34,1.86,12.46,12.46,12.81
-9.71,-0.37,1.98,13.93,13.93,13.93
-9.67,-0.09,2.05,15.26,15.26,15.26
-9.1,0.66,2.25,8.68,8.68,7.7
-9,0.69,2.3,5.39,5.39,5.39
-9.07,0.64,2.24,4.13,4.13,4.13
-9.1,0.79,2.22,3.36,3.36,3.36
-9.04,1.06,2.22,1.47,0.21,0.21
-9.21,1.19,2.24,-4.41,-6.23,-6.23
-9.71,0.78,2.08,-12.25,-12.25,-12.25
-10.27,0.19,1.92,-15.89,-15.96,-15.96
-10.67,-0.27,1.79,-14.84,-14.84,-14.35
-11.15,-0.46,1.73,-11.55,-11.55,-11.55
-11.03,-0.25,1.7,-7.77,-7.77,-7.77
-10.72,0.06,1.71,-7.49,-7.49,-7.42
-10.41,0.24,1.74,-8.82,-8.82,-8.82
-10.21,0.45,1.79,-9.8,-10.22,-10.22
-9.86,0.54,1.84,-11.27,-11.27,-11.27
-9.52,0.56,1.88,-12.11,-12.11,-12.11
-9.04,0.56,1.9,-12.18,-12.25,-12.25
-8.78,0.3,1.83,-11.55,-11.41,-11.41
-8.69,-0.06,1.72,-9.52,-8.96,-8.96
-8.76,-0.42,1.46,-4.2,-4.2,-3.57
-8.88,-0.79,1.31,-0.14,0.84,0.84
-8.96,-0.56,1.58,2.66,2.52,2.52
-9.06,-0.34,1.9,0.14,0.14,0.14
-9.35,-0.61,1.83,-3.5,-3.5,-3.5
-9.49,-1.06,1.67,-2.94,-2.94,-2.45
-9.43,-0.9,1.71,-0.91,-0.91,-0.91
-9.35,-0.33,1.9,-2.94,-2.94,-2.94
-9.13,-0.05,1.97,-7.21,-7.21,-8.82
-8.85,0.06,2.06,-13.72,-13.72,-13.72
-8.48,0.06,2.09,-19.81,-19.81,-19.81
-8.32,0.02,2.18,-22.61,-22.61,-22.89
-8.7,-0.4,2.08,-23.73,-23.73,-23.73
-9.09,-1.19,2.02,-20.72,-19.18,-19.18
-9.82,-1.97,1.98,-12.88,-10.36,-10.36
-10.31,-2.14,2.05,-2.24,-1.26,-1.26
-10.46,-2.05,2.14,6.02,6.02,6.58
-10.41,-1.88,2.28,9.87,9.87,10.36
-10.23,-1.73,2.25,12.25,12.25,12.25
-9.77,-1.34,2.23,13.51,13.44,13.44
-9.47,-1.2,2.26,12.18,11.97,11.97
-9.6,-1.31,2.31,10.01,9.8,9.8
-9.74,-1.4,2.37,8.47,7.63,7.63
-9.65,-1.45,2.37,6.23,5.88,5.25
-9.5,-1.18,2.31,2.66,2.66,2.1
-9.28,-0.89,2.24,-2.73,-2.73,-2.73
-9.34,-1.03,2.15,-6.51,-6.51,-6.51
-9.49,-1.22,2.11,-8.12,-8.12,-8.12
-9.86,-1.46,2.02,-8.12,-8.05,-8.05
-10.28,-1.56,1.89,-7.56,-7.56,-7.56
-10.67,-1.71,1.8,-7.63,-7.63,-7.63
-10.88,-1.56,1.82,-8.12,-8.4,-8.4
-10.86,-1.45,1.9,-8.82,-9.1,-9.1
-10.56,-1.29,1.9,-9.52,-9.52,-9.73
-10.08,-1.01,1.92,-10.71,-10.71,-10.71
-9.72,-0.73,1.82,-13.09,-13.09,-13.44
-9.41,-0.73,1.78,-15.19,-15.19,-15.4
-9.27,-0.95,1.72,-15.26,-15.26,-15.26
-9.37,-1.21,1.7,-12.04,-12.04,-12.04
-9.57,-1.5,1.68,-9.03,-7.91,-7.91
-9.7,-1.68,1.72,-4.06,-2.87,-2.87
-9.77,-1.83,1.68,1.12,1.12,2.1
-9.49,-1.56,1.7,3.99,4.2,4.2
-9.23,-1.18,1.74,3.5,3.22,3.22
-9.27,-1.17,1.78,1.33,1.05,1.05
-9.41,-1.37,1.8,1.05,1.19,1.19
-9.44,-1.33,1.77,2.03,2.1,2.1
-9.29,-0.93,1.76,2.24,1.61,1.61
-9.22,-0.53,1.75,-1.12,-1.12,-1.12
-9.33,-0.63,1.7,-4.27,-4.27,-4.48
-9.66,-1,1.62,-4.13,-4.13,-4.13
-9.84,-1.39,1.6,-1.75,-0.84,-0.84
-9.93,-1.58,1.57,2.1,2.94,2.94
-9.75,-1.35,1.61,4.2,4.2,4.13
-9.59,-0.8,1.69,1.19,1.19,1.19
-9.52,-0.63,1.82,-4.27,-4.76,-4.76
-9.76,-0.97,1.87,-6.79,-6.86,-6.86
-9.91,-1.34,1.97,-5.39,-5.39,-5.04
-9.91,-1.33,2.06,-3.22,-3.22,-2.17
-9.73,-1.13,2.1,-0.84,-0.84,-0.56
-9.54,-1.06,2.11,1.89,1.89,2.24
-9.86,-1.05,2.19,7.42,7.42,7.42
-9.82,-0.94,2.2,6.58,6.58,6.16
-9.65,-0.79,2.14,4.27,4.27,4.27
-9.54,-0.95,1.85,2.52,2.52,2.52
-9.54,-0.94,1.82,2.52,2.66,2.66
-9.7,-1.14,1.66,3.5,3.71,3.71
-9.83,-1.08,1.74,4.48,4.48,4.62
-9.83,-0.92,1.73,4.48,4.48,4.13
-9.75,-0.7,1.79,2.66,2.66,2.17
-9.66,-0.82,1.74,1.19,1.19,1.19
-9.51,-1.03,1.68,1.75,1.75,1.75
-9.41,-1.16,1.65,3.08,3.08,3.08
-9.27,-1.22,1.68,2.8,2.8,2.8
-9.11,-1.17,1.72,1.68,1.47,1.47
-9.1,-1.19,1.79,0.77,0.7,0.7
-9.28,-1.35,1.75,0.84,1.05,1.05
-9.28,-1.37,1.63,1.96,1.96,1.96
-9.15,-1.2,1.62,1.68,1.68,1.68
-9.13,-0.99,1.75,-0.14,-0.63,-0.63
-9.37,-1.11,1.76,-3.08,-3.08,-3.08
-9.57,-1.33,1.74,-4.41,-4.41,-4.41
-9.81,-1.71,1.63,-3.78,-3.43,-3.43
-9.83,-1.48,1.67,-3.64,-3.64,-3.64
-9.83,-1.25,1.74,-5.74,-6.02,-6.02
-9.92,-1.28,1.8,-7.21,-7.21,-7.21
-9.96,-1.26,1.88,-8.26,-8.33,-8.54
-10.02,-1.34,1.89,-9.31,-9.38,-9.38
-9.93,-1.28,1.92,-10.5,-10.5,-10.78
-9.88,-1.27,1.96,-12.39,-12.39,-13.02
-9.92,-1.51,1.86,-13.65,-13.65,-13.58
-9.89,-1.64,1.74,-11.41,-11.41,-11.06
-9.75,-1.52,1.78,-10.01,-10.01,-9.87
-9.68,-1.29,1.95,-10.85,-11.48,-11.9
-9.88,-1.31,2.29,-14.14,-14.56,-14.56
-10.01,-2,2.22,-15.75,-15.68,-15.68
-9.86,-2.35,1.94,-12.18,-12.18,-11.41
-9.49,-2.5,1.74,-6.58,-6.58,-5.81
-9.14,-2.16,1.85,-0.98,-0.98,-0.7
-8.86,-1.7,2,-0.49,-0.63,-0.63
-8.82,-1.54,2.16,-1.26,-1.26,-1.26
-8.96,-1.7,2.19,-0.35,-0.35,0.28
-9.15,-1.99,2.15,3.01,3.01,3.01
-9.34,-2.19,1.98,8.89,10.5,10.5
-9.57,-2.33,1.98,15.82,16.38,16.38
-9.6,-1.95,2.14,19.74,19.74,19.74
-9.67,-1.67,2.27,18.62,18.62,18.34
-9.63,-1.57,2.12,16.24,16.24,16.24
-9.57,-1.15,1.99,12.04,11.41,11.41
-9.78,-0.89,1.83,7,6.09,3.92
-10.04,-0.74,1.77,-1.82,-3.15,-3.15
-10.46,-0.69,2.35,-16.52,-17.85,-17.85
-10.68,-0.79,2.49,-24.57,-25.62,-25.62
-10.58,-1.32,2.25,-31.99,-32.13,-32.13
-10.24,-1.87,2.01,-30.1,-30.1,-29.4
-9.91,-2.35,1.81,-23.59,-23.59,-18.69
-9.39,-2.94,1.57,-5.04,-5.04,-2.8
-8.9,-2.79,1.62,15.05,15.05,15.05
-8.42,-2.33,1.7,24.01,26.18,26.18
-8.1,-1.86,1.83,30.87,31.85,31.85
-8.05,-1.72,1.95,33.74,33.74,34.09
-8.32,-1.78,1.94,34.93,34.93,34.93
-8.63,-1.65,1.85,36.47,36.47,36.47
-8.87,-1.57,1.79,37.03,37.03,37.03
-9.27,-1.71,1.79,37.17,37.17,37.17
-9.58,-1.79,1.77,37.52,37.66,37.66
-9.84,-1.63,1.79,37.66,37.66,37.52
-9.99,-1.4,1.72,36.4,36.4,36.4
-10.09,-1.21,1.56,33.67,33.67,33.67
-10.29,-1.22,1.45,31.99,31.99,31.71
-10.26,-1.01,1.45,28.98,28.98,28.98
-10.06,-0.66,1.48,21.42,21.42,21.42
-9.92,-0.71,1.39,15.89,15.89,14.98
-9.76,-0.82,1.37,8.68,8.68,7.84
-9.81,-0.88,1.49,-0.7,-0.7,-0.7
-9.87,-0.8,1.45,-8.12,-8.12,-8.12
-9.8,-0.65,1.37,-19.88,-19.88,-19.88
-9.87,-1.05,1.37,-27.65,-27.65,-27.65
-9.97,-1.79,1.26,-28.98,-28.84,-28.84
-9.75,-2.56,1.29,-9.03,-9.03,-9.03
-9.61,-2.25,1.45,-3.01,-1.82,-1.26
-9.48,-2.1,1.51,0.91,0.91,0.91
-9.39,-2.06,1.54,3.22,3.5,3.5
-9.31,-2.04,1.56,4.9,5.18,5.18
-9.11,-1.35,1.78,2.31,2.31,2.31
-9.03,-0.72,1.77,-6.93,-6.93,-9.45
-9.48,-1.14,1.72,-16.03,-16.03,-16.03
-10.02,-2.01,1.73,-18.83,-18.62,-18.62
-10.32,-2.52,1.71,-14.98,-14.98,-14.14
-10.2,-2.42,1.56,-4.97,-4.97,-4.97
-9.81,-2.01,1.57,1.05,1.05,1.05
-9.57,-1.53,1.63,3.71,3.71,3.71
-9.47,-1.23,1.69,0.28,0.28,0.28
-9.37,-0.94,1.79,-5.11,-5.11,-5.11
-9.41,-1.14,1.79,-9.73,-10.29,-11.06
-9.57,-1.5,1.75,-11.83,-11.83,-11.83
-9.84,-1.3,1.69,-9.45,-9.31,-9.31
-9.79,-1.32,1.64,-8.68,-8.26,-7.91
-9.54,-1.48,1.53,-4.55,-4.55,-4.55
-9.39,-1.35,1.79,-0.98,0.35,0.35
-9.19,-1.54,1.91,11.13,11.13,11.13
-9.26,-1.09,2.17,14.63,14.63,14.63
-9.26,-0.97,2.18,12.6,12.6,12.6
-9.32,-0.95,2.07,8.19,8.19,7.77
-9.87,-1.05,1.85,0.42,0.42,0.21
-10.14,-1.39,1.76,1.47,1.47,1.47
-10.14,-1.22,1.64,7.49,7.49,7.77
-9.87,-1.05,1.62,9.17,9.17,9.17
-9.73,-0.92,1.6,8.96,8.96,8.96
-9.73,-0.9,1.6,8.33,8.26,8.26
-9.93,-1.14,1.6,8.05,8.05,8.05
-9.98,-1.35,1.65,8.26,8.47,8.47
-9.77,-1.33,1.75,8.4,8.19,8.19
-9.56,-1.05,1.86,5.88,5.46,5.46
-9.56,-0.96,1.86,0.7,0.7,0.35
-9.53,-1,1.97,-3.29,-3.29,-3.64
-9.67,-1.26,1.99,-4.69,-4.9,-4.83
-9.79,-1.29,2.07,-3.99,-3.78,-3.78
-10,-1.26,2.13,-2.45,-2.45,-2.03
-10.18,-1.51,2,2.87,2.87,3.71
-10.21,-1.55,2.04,9.66,9.66,10.43
-10.16,-1.23,2.05,15.54,15.54,15.54
-10.13,-0.64,2.23,16.8,16.59,16.1
-10.34,-0.65,2.25,15.19,15.19,15.19
-10.38,-0.33,2.32,20.65,20.65,20.37
-10.53,-0.22,2.35,19.11,19.11,18.9
-10.8,-0.51,2.26,19.25,19.25,19.6
-10.85,-0.35,2.3,21.35,21.35,21.35
-10.73,0.28,2.32,20.65,20.65,20.65
-10.83,0.41,2.35,17.08,16.59,15.61
-11.03,0.32,2.28,14.28,14.28,14.35
-11.02,0.29,2.23,15.82,15.82,15.82
-10.83,0.63,2.23,16.87,17.15,17.15
-10.61,1.05,2.25,17.22,17.22,17.22
-10.5,1.25,2.2,17.43,17.43,17.43
-10.29,1.3,2.17,18.2,18.41,18.41
-10.11,1.42,2.14,19.32,19.81,19.81
-9.95,1.66,2.12,20.51,20.51,20.51
-9.85,1.76,2.11,21.77,21.77,21.77
-9.66,1.86,2.1,23.31,23.31,23.31
-9.71,1.98,2.12,24.01,24.22,24.22
-9.75,2.19,2.21,24.29,24.29,24.29
-9.62,2.51,2.14,23.73,23.73,23.73
-9.46,2.72,2.12,23.52,23.52,23.52
-9.54,2.92,2.1,23.1,23.1,23.03
-9.49,3.29,2.09,21.98,21.98,21.98
-9.17,3.63,1.94,20.93,20.93,20.93
-8.91,4.01,1.86,18.62,18.62,18.62
-8.74,4.37,1.89,16.1,16.1,15.19
-8.55,4.52,1.8,13.09,13.09,13.09
-7.89,4.89,1.72,9.66,9.66,9.66
-7.73,4.93,1.69,9.24,9.24,9.24
-7.69,4.65,1.65,10.92,10.92,12.04
-7.5,4.61,1.74,17.36,17.36,17.36
-7.31,4.8,1.82,22.19,22.19,22.19
-7.15,5.32,1.87,23.66,23.66,23.66
-6.99,5.96,1.9,21.14,21.14,21.14
-6.47,6.59,1.8,8.75,8.26,8.26
-6.16,6.54,1.75,7,7,7
-6.11,6.67,1.66,7.21,7.35,7.35
-6.06,6.9,1.67,7.91,8.05,8.05
-5.99,7.35,1.8,7.98,7.84,7.84
-5.84,7.55,1.81,6.58,6.58,6.3
-5.49,7.82,1.73,4.27,4.27,3.99
-5.22,7.99,1.73,1.33,1.33,1.33
-4.85,8.26,1.67,-1.26,-2.59,-2.59
-4.39,8.7,1.76,-6.86,-6.86,-8.26
-3.82,8.93,1.85,-12.53,-12.53,-12.53
-3.4,8.64,1.78,-16.17,-16.17,-16.17
-3.03,8.55,1.83,-18.13,-18.13,-18.13
-2.33,8.81,1.99,-21.77,-21.77,-21.77
-1.75,8.83,2.09,-27.58,-28,-28
-1.58,8.33,2.01,-28.63,-27.93,-27.93
-1.62,8.04,2.15,-25.83,-25.34,-24.57
-1.25,8.26,2.37,-23.66,-23.8,-23.8
-0.59,8.39,2.54,-24.5,-24.71,-24.71
-0.1,8.08,2.51,-23.17,-23.17,-22.68
0.22,7.8,2.59,-19.53,-18.9,-18.9
0.59,8.04,2.79,-15.61,-15.19,-15.19
1.19,8.46,2.94,-14,-14,-13.65
1.49,8.36,3.1,-10.57,-10.57,-10.57
1.56,8.09,3.13,-3.01,-3.01,-3.01
1.77,8.44,3.18,1.26,1.68,1.68
2.2,9.22,3.23,1.12,0.91,0.91
2.4,9.02,3.07,1.26,1.61,1.61
2.41,8.71,2.81,4.62,4.62,4.83
2.6,9.19,2.86,4.34,3.57,2.94
2.61,9.41,2.91,-0.56,-1.12,-1.12
2.48,8.91,2.78,-4.48,-4.48,-4.76
2.77,8.76,2.81,-6.37,-7.35,-7.91
3.21,8.77,2.84,-11.76,-13.44,-14.28
3.58,8.54,2.87,-18.13,-18.13,-20.16
3.76,8.04,3,-22.82,-22.82,-22.82
3.83,7.5,3.06,-21.77,-21.28,-21.28
4.5,7.5,3.2,-20.51,-20.51,-20.51
5.45,7.34,3.28,-21.77,-21.77,-21.77
5.9,6.62,3.27,-20.65,-20.65,-20.65
6.19,5.92,3.23,-16.1,-16.1,-16.1
7,5.97,3.37,-16.17,-16.17,-16.17
7.42,5.92,3.34,-16.87,-16.87,-16.87
7.45,5.24,3.34,-14.84,-14.84,-14.21
7.1,4.25,3.16,-4.2,-4.2,-4.2
7.17,4.3,3.13,5.18,5.18,5.18
7.38,5.07,3.17,8.61,8.61,8.61
7.18,5.36,3.21,10.01,10.01,10.43
6.88,5.07,2.97,13.79,13.79,13.79
6.72,5.13,2.76,16.66,16.66,17.15
6.9,5.8,2.67,17.85,17.85,17.85
6.84,6.58,2.75,15.89,15.12,15.12
6.38,6.79,2.83,13.3,13.3,12.95
5.9,7.02,2.87,11.83,11.83,11.2
5.55,7.3,2.81,9.24,9.24,9.24
5.62,7.88,2.96,3.57,3.57,3.57
5.49,7.89,2.95,-0.63,-1.19,-1.19
5.16,7.72,2.96,-4.62,-4.62,-4.62
4.91,7.59,2.94,-4.9,-5.11,-5.11
4.98,7.63,2.98,-5.67,-5.88,-6.09
5.02,7.57,3.15,-10.36,-10.29,-10.29
5.05,7.43,3.15,-9.66,-9.66,-9.59
5.05,7.33,3.2,-9.87,-10.08,-10.08
4.83,7.04,3.21,-9.03,-8.19,-7.7
4.41,6.85,3.25,-4.13,-3.5,-3.5
4.29,7.01,3.3,-0.77,-0.77,-0.77
4.02,7.35,3.41,-2.38,-2.38,-2.38
3.59,7.35,3.42,-3.92,-4.06,-4.06
3.04,7.08,3.46,-2.1,-2.1,-2.1
2.64,7.26,3.48,2.03,2.03,3.08
2.4,7.91,3.59,4.2,4.2,4.2
2.02,8.1,3.55,5.53,5.53,5.53
1.42,8.07,3.53,7.98,9.1,9.1
1.14,8.68,3.6,10.78,10.57,10.57
0.86,9.48,3.62,6.79,6.79,6.09
0.32,9.34,3.39,3.22,3.22,3.22
-0.06,8.88,3.28,4.9,4.9,4.9
-0.05,9.3,3.24,5.74,5.74,5.74
-0.17,9.49,3.18,0.91,0.91,0.91
-0.79,9.06,3.27,-2.31,-2.31,-2.31
-1.36,8.57,3.24,-2.17,-2.17,-2.17
-1.16,8.86,3.37,-3.92,-4.41,-4.41
-1.12,8.98,3.48,-11.41,-11.41,-11.41
-1.48,8.23,3.41,-14.07,-14.07,-14.07
-1.44,7.9,3.38,-10.22,-9.73,-9.73
-1.5,8.09,3.46,-6.51,-6.09,-6.09
-2.18,7.97,3.48,-4.69,-3.36,-3.36
-2.63,7.72,3.56,-0.21,1.68,1.68
-2.81,8.19,3.7,8.12,8.19,8.19
-3.21,8.08,3.61,9.1,9.31,9.31
-3.6,7.96,3.61,10.78,10.78,11.2
-4.03,7.97,3.53,13.16,13.16,13.16
-4.41,8.21,3.43,12.74,12.74,12.74
-5.13,7.96,3.13,7.77,7.77,7.77
-5.45,7.81,3.07,7.07,7.07,6.65
-5.79,7.79,3.01,3.99,3.5,3.5
-5.91,7.57,2.87,-0.42,-0.91,-0.91
-5.88,7.2,2.79,-3.43,-3.43,-3.57
-5.83,7.21,2.87,-4.69,-4.69,-4.97
-5.95,7.17,2.89,-8.05,-8.05,-8.61
-6.14,6.85,2.79,-10.85,-10.85,-10.99
-7,6.05,2.8,-9.1,-9.1,-8.47
-6.76,5.92,2.86,-3.08,-3.08,-3.08
-6.58,6.39,2.97,-4.13,-4.13,-4.13
-7,6.1,2.96,-6.3,-6.58,-6.58
-7.55,5.43,2.98,-5.11,-5.11,-4.69
-7.81,5.32,3,-1.68,-1.68,-1.4
-7.69,5.64,3.02,-1.75,-2.1,-2.38
-7.75,5.59,2.98,-3.36,-3.36,-3.5
-8.07,5.11,2.9,-2.24,-2.24,-2.24
-8.36,5.33,2.87,0.7,0.7,0.7
-8.88,4.45,2.75,-2.8,-2.17,-2.17
-8.8,4.11,2.76,0.28,0.28,0.84
-8.54,4.27,2.79,0,-0.35,-0.35
-8.56,4.18,2.77,-4.76,-4.76,-4.76
-8.71,3.58,2.76,-7,-7,-6.65
-8.86,3.03,2.72,-4.55,-4.55,-4.41
-8.59,3.39,2.79,-5.67,-5.67,-6.23
-8.47,3.47,2.82,-13.02,-13.02,-13.02
-9.06,2.52,2.73,-14.28,-14.28,-14.28
-9.44,1.88,2.74,-10.15,-10.15,-10.15
-9.64,1.8,2.79,-6.09,-5.6,-5.6
-9.82,1.59,2.81,-0.77,-0.77,-0.77
-9.99,1.66,2.87,-0.42,-0.42,-0.42
-10.13,1.74,2.86,-1.61,-2.17,-2.17
-9.92,1.8,2.79,-4.76,-4.76,-5.32
-9.82,1.53,2.76,-9.03,-9.03,-9.31
-9.99,1.18,2.83,-9.38,-9.38,-9.38
-10.22,0.79,2.9,-8.4,-8.4,-8.19
-9.85,0.79,2.89,-8.54,-8.61,-8.61
-9.62,0.76,2.9,-11.69,-11.69,-12.11
-9.36,0.52,2.89,-14.21,-14.21,-14.42
-9.3,0.25,2.93,-15.33,-15.33,-15.4
-9.36,-0.02,3.05,-16.24,-16.24,-16.24
-9.46,-0.51,3.07,-15.75,-15.26,-15.26
-9.34,-0.8,3.11,-14.42,-14.42,-14.28
-9.3,-0.89,3.14,-14.77,-14.77,-15.12
-9.41,-1.32,3.18,-15.19,-15.19,-15.19
-9.54,-1.59,3.21,-12.95,-12.95,-12.95
-9.7,-1.87,3.16,-9.59,-8.4,-8.4
-9.69,-1.65,3.17,-5.04,-5.04,-5.04
-9.92,-1.4,3.27,-2.24,-2.24,-2.24
-10.39,-1.38,3.23,0.84,0.84,0.98
-10.66,-1.15,3.26,1.68,2.03,2.03
-11.05,-1.07,3.34,2.52,2.73,2.87
-11.21,-0.94,3.37,3.43,3.43,3.64
-11.14,-0.64,3.33,3.71,3.71,3.57
-11.16,-0.32,3.35,1.33,1.33,1.26
-11.24,-0.43,3.37,0.98,0.98,1.26
-11.27,-0.52,3.34,2.8,2.8,3.01
-11.17,-0.5,3.31,4.2,4.2,4.76
-10.93,-0.31,3.29,6.16,6.16,6.16
-11.05,-0.3,3.28,7.98,8.26,8.26
-11.2,-0.59,3.22,11.13,11.13,11.13
-11.07,-0.45,3.21,14.56,14.91,14.91
-10.82,-0.11,3.22,16.94,16.94,17.08
-10.72,0.13,3.18,17.43,17.71,17.78
-10.84,0.21,3.12,18.48,18.48,18.48
-11.11,0.25,3.1,19.39,19.53,19.53
-11.33,0.46,3.06,19.46,19.25,19.25
-11.19,0.98,2.94,18.41,18.41,18.41
-11.04,1.27,2.79,18.27,18.48,18.48
-10.86,1.62,2.79,19.11,19.6,19.6
-10.58,2.22,2.87,19.46,19.46,19.46
-10.08,2.81,2.83,17.08,16.87,16.87
-9.7,3.08,2.73,14.35,14.35,14.35
-9.27,3.28,2.62,13.09,13.09,13.09
-8.87,3.54,2.6,12.46,12.39,12.39
-8.47,3.68,2.58,11.9,11.9,11.9
-8.15,3.83,2.54,11.62,11.62,11.62
-7.66,4.1,2.54,12.46,12.46,12.46
-7.35,4.28,2.52,12.6,12.6,12.6
-7.01,4.52,2.54,13.16,13.51,13.51
-6.84,4.72,2.52,15.75,16.24,16.24
-6.59,4.97,2.45,19.95,19.95,20.37
-6.25,5.4,2.45,21.7,21.98,22.19
-6.28,5.74,2.46,23.17,23.17,23.59
-6.25,5.94,2.4,25.34,25.34,25.62
-5.91,6.55,2.35,25.55,24.78,24.57
-5.31,7.27,2.26,20.44,20.44,19.74
-4.99,7.44,2.19,15.54,15.54,14.98
-4.66,7.52,2.12,12.11,12.11,11.83
-4.58,7.68,2.12,10.71,10.43,10.22
-4.3,7.86,2.09,9.31,9.03,9.03
-4.06,8.07,2.12,6.3,6.3,6.23
-3.62,8.1,2.09,5.32,5.18,5.32
-3.44,8.04,2.11,6.79,6.79,6.79
-3.5,8.15,2.23,9.1,9.1,9.1
-3.13,8.59,2.3,9.1,8.82,8.82
-2.51,8.76,2.16,6.93,6.79,6.79
-1.75,8.82,2.17,5.88,6.02,6.02
-1.48,8.81,2.18,5.25,5.25,4.69
-1.15,8.84,2.2,3.85,3.85,3.64
-0.76,8.82,2.25,1.89,1.68,1.68
-0.19,8.73,2.19,0.77,0.77,0.77
0.25,8.41,2.13,1.47,1.47,1.47
0.55,8.34,2.1,3.15,3.15,3.15
0.92,8.26,2.05,4.69,4.69,5.11
1.38,8.24,1.95,5.95,5.95,5.95
2.09,8.48,1.96,5.67,5.67,5.67
2.55,8.35,1.84,5.81,5.81,6.09
2.68,8.07,1.71,8.12,8.12,8.12
2.69,7.98,1.74,13.51,13.51,13.51
3.73,8.97,2.09,8.19,8.19,8.19
3.58,8.6,2.14,4.27,3.29,3.29
3.29,8.15,2.22,1.68,1.68,1.68
3.18,8.11,2.25,1.4,1.4,1.4
3.15,8.07,2.33,2.38,2.94,2.94
3.3,8.08,2.28,5.04,5.04,5.74
3.48,8.26,2.26,6.93,6.93,6.86
3.65,8.59,2.29,5.81,5.81,5.81
3.84,8.58,2.12,3.01,3.01,3.01
4.09,8.57,2.01,1.61,1.61,1.61
4.4,8.59,1.96,-1.61,-1.61,-1.61
4.47,8.49,1.89,-3.57,-3.64,-3.64
4.31,8.14,1.73,-3.29,-3.08,-3.08
4.32,8.15,1.75,-1.68,-1.61,-1.61
4.45,8.32,1.73,-1.26,-1.26,-1.26
4.46,8.23,1.69,-0.84,-0.84,-0.7
4.24,7.88,1.68,1.12,1.96,2.52
4.25,7.89,1.72,4.69,4.69,5.25
4.45,8.35,1.87,4.41,4.41,3.99
4.44,8.38,1.91,1.68,1.68,1.68
4.2,8.22,1.94,-1.54,-1.68,-1.68
4.1,8.16,2,-3.01,-3.22,-3.22
4.12,8.36,2.01,-6.86,-7.28,-7.28
3.94,8.31,2.01,-8.82,-8.89,-8.89
3.77,8.16,1.99,-7.21,-6.86,-6.86
3.77,8.29,2.04,-4.83,-4.34,-4.34
3.82,8.74,2.11,-4.76,-4.97,-5.6
3.67,8.65,2.1,-7.14,-7.14,-7.14
3.24,8.39,2.07,-5.81,-5.39,-5.39
2.97,8.38,2.08,-3.29,-2.38,-2.38
2.99,8.85,2.08,-2.52,-2.52,-2.73
2.72,8.79,2.05,-3.99,-3.99,-3.99
2.27,8.56,2.09,-2.59,-2.59,-2.59
2,8.63,2.14,-1.12,-0.98,-0.98
1.75,9,2.21,-1.96,-1.96,-2.24
1.48,8.94,2.17,-3.85,-3.85,-3.92
1.02,8.93,2.32,-5.18,-5.18,-5.6
0.42,8.92,2.34,-6.58,-6.58,-6.58
0.11,8.83,2.39,-6.79,-6.79,-6.79
0.03,8.89,2.38,-5.67,-5.67,-5.67
-0.05,9.08,2.38,-5.25,-5.32,-5.32
-0.31,9.38,2.48,-7.28,-7.56,-7.56
-0.67,9.2,2.46,-9.45,-9.45,-9.1
-0.95,8.83,2.42,-6.23,-6.23,-5.81
-0.94,8.91,2.45,-3.22,-3.22,-3.01
-1.11,9.14,2.54,-2.52,-2.52,-2.52
-1.66,9.06,2.5,-1.75,-1.75,-1.54
-2.03,8.94,2.54,0.63,0.63,0.98
-2.22,9.03,2.48,1.89,1.89,2.1
-2.16,9.17,2.46,0.7,0.7,0.7
-2.33,9.08,2.47,-0.35,-0.35,-0.35
-2.77,8.96,2.48,-0.49,-0.49,-0.49
-3.1,8.78,2.52,0.21,0.21,0.21
-3.33,8.81,2.54,0.49,0.49,0.49
-3.58,8.9,2.49,-0.07,-0.07,-0.21
-3.81,8.84,2.48,-0.14,0.07,0.07
-3.87,8.74,2.41,1.19,1.19,1.26
-3.88,8.86,2.41,0.98,0.98,0.98
-4,8.97,2.46,-1.26,-1.26,-1.26
-4.18,8.64,2.41,-2.87,-2.87,-2.87
-4.23,8.25,2.29,-1.96,-1.96,-1.96
-3.93,8.59,2.3,-2.8,-3.22,-3.22
-3.82,8.6,2.31,-5.95,-6.23,-6.23
-4.07,8.21,2.28,-7.28,-7.14,-7.14
-4.52,7.76,2.3,-6.23,-5.32,-5.32
-4.98,7.58,2.34,-2.73,-2.73,-2.73
-5.03,7.72,2.44,-1.26,-1.26,-1.26
-5.19,7.8,2.47,-1.68,-1.68,-1.68
-5.4,7.68,2.34,-1.33,-1.19,-1.19
-5.44,7.62,2.29,-0.56,-0.56,-0.28
-5.69,7.54,2.23,0.42,0.42,0.7
-6.42,7.33,2.19,3.99,3.99,3.99
-6.52,7.46,2.21,3.15,3.15,2.8
-6.61,7.61,2.26,-0.35,-0.35,-0.98
-6.47,7.53,2.23,-5.25,-5.25,-6.51
-6.99,6.61,2.29,-4.55,-4.55,-4.55
-7,6.74,2.33,-3.43,-3.43,-3.43
-6.9,6.73,2.4,-4.34,-4.34,-4.34
-6.9,6.58,2.34,-5.67,-5.67,-5.67
-6.72,6.39,2.32,-7.07,-7.07,-7.07
-6.52,6.14,2.18,-9.1,-9.1,-9.1
-7.26,5.56,2.24,0.21,0.21,0.21
-7.24,5.81,2.34,-1.68,-2.52,-2.52
-7.68,5.33,2.23,-3.85,-3.78,-3.78
-7.93,4.98,2.33,-2.8,-2.17,-2.17
-8.09,4.95,2.35,-1.68,-1.68,-1.75
-8.46,5.11,2.42,-2.38,-2.38,-2.38
-8.63,5.05,2.27,-1.96,-1.96,-1.96
-8.56,4.97,2.12,0.14,0.42,0.42
-8.33,4.86,1.86,2.03,2.03,2.24
-8.11,4.62,1.75,3.64,3.64,3.64
-8.52,4.25,1.69,6.23,6.51,6.51
-8.66,4.54,1.81,6.79,6.72,6.72
-8.76,4.54,1.82,2.1,2.1,1.68
-8.81,4.11,1.59,-0.07,-0.07,0.14
-9.03,3.15,1.34,3.43,5.46,6.58
-8.98,2.86,1.25,12.32,14.21,15.19
-8.49,3.46,1.32,17.64,17.64,17.29
-7.64,4.21,1.38,11.97,11.97,11.97
-8.25,3.77,1.23,3.99,3.99,2.73
-9.28,2.54,1.08,1.26,1.4,1.4
-9.95,1.97,0.97,4.41,4.41,4.83
-10.41,1.92,0.97,6.79,6.79,6.79
-10.66,1.98,0.93,7.14,7.14,7.14
-10.77,1.98,0.88,6.93,7,7
-10.55,2.16,0.94,5.88,4.83,4.83
-10.11,2.47,1.07,1.82,1.05,-0.49
-9.91,2.39,1.06,-4.34,-5.04,-5.04
-10.05,1.65,1.01,-7.7,-7.7,-7.91
-9.79,0.91,1.2,-6.09,-6.09,-5.74
-9.61,0.7,1.35,-4.27,-4.27,-4.27
-9.31,0.4,1.55,-4.76,-4.76,-4.9
-8.84,-0.03,1.71,-7.56,-7.77,-7.77
-8.5,-0.29,1.86,-8.68,-8.68,-8.68
-8.45,-0.75,1.92,-10.29,-10.29,-10.29
-8.7,-2.08,1.97,-9.66,-9.17,-8.19
-9.01,-3.25,1.99,1.4,1.4,2.87
-9.42,-3.57,2.02,10.43,10.43,11.13
-9.66,-3.26,2,12.39,12.39,12.18
-9.89,-3.21,1.77,8.47,8.47,8.47
-10.23,-4.37,1.76,7.21,7.21,7.21
-10.73,-4.59,1.42,14.42,14.42,14.42
-11.32,-3.5,1.33,15.54,14.77,14.77
-11.34,-2.17,1.25,8.68,4.13,4.13
-11.28,-1.7,1.06,-3.15,-4.34,-4.34
-11.21,-1.63,0.89,-10.99,-11.55,-11.55
-11.27,-2.02,0.82,-13.58,-13.51,-13.51
-11.56,-2.21,0.68,-11.9,-11.9,-11.48
-11.47,-2.12,0.68,-7.84,-7.84,-7.84
-11.17,-1.94,0.64,-4.48,-4.48,-4.48
-10.62,-1.87,0.63,-2.87,-2.87,-2.87
-10.07,-1.94,0.66,-1.05,-0.84,-0.84
-9.5,-1.95,0.84,-1.05,-1.19,-1.19
-8.99,-2.1,0.91,-4.2,-4.2,-4.2
-8.54,-2.35,1.02,-9.52,-9.52,-9.52
-8.21,-2.57,1.19,-13.58,-15.12,-15.12
-8.15,-3.05,1.36,-20.23,-20.23,-20.23
-8.06,-3.42,1.39,-22.61,-22.61,-22.61
-7.94,-3.98,1.44,-20.09,-19.6,-19.6
-7.93,-4.38,1.54,-13.37,-12.39,-12.39
-7.99,-4.32,1.7,-6.65,-6.65,-6.65
-8.22,-3.88,1.97,-1.4,-1.4,-1.4
-8.38,-3.48,2.12,0.56,0.56,0.56
-8.42,-3.17,2.1,2.38,3.01,3.01
-8.43,-2.89,2,4.76,5.04,5.18
-8.55,-2.72,1.9,4.97,4.97,4.97
-9.04,-2.97,1.83,3.92,3.92,3.92
-9.64,-3.54,1.86,4.06,4.06,4.06
-10.06,-3.76,1.87,6.3,6.3,6.3
-10.34,-3.36,1.81,7.28,7.28,7.28
-10.4,-3.08,1.71,4.41,4.41,4.41
-10.29,-2.99,1.69,1.89,1.12,1.12
-9.49,-2.93,1.4,-0.35,-0.35,-0.35
-9.21,-3.09,1.43,-3.57,-3.57,-3.57
-9.1,-3.58,1.42,-5.11,-5.18,-5.18
-9.03,-4.22,1.45,-3.15,-3.15,-3.15
-8.82,-4.1,1.51,-0.77,-0.77,-0.77
-8.59,-3.59,1.6,0,-0.28,-0.28
-8.36,-3.48,1.68,-1.96,-3.15,-3.15
-8.26,-3.76,1.75,-4.41,-4.41,-4.41
-8.42,-4.54,1.79,-2.24,-2.24,-1.68
-8.62,-4.84,1.83,2.24,2.24,2.8
-8.67,-4.59,1.89,5.32,5.32,5.53
-8.54,-4.19,1.85,4.27,4.27,4.27
-8.5,-3.99,1.78,1.89,0.98,0.98
-8.59,-3.86,1.79,-1.47,-1.47,-2.17
-8.69,-3.69,1.78,-3.71,-3.71,-3.71
-8.77,-3.46,1.72,-5.67,-5.67,-6.16
-8.87,-3.32,1.75,-8.4,-8.4,-8.4
-9.15,-3.4,1.84,-10.85,-10.92,-10.92
-9.48,-3.8,1.86,-10.64,-10.36,-10.36
-9.76,-4.33,1.83,-6.58,-6.58,-5.95
-10.09,-4.49,1.87,-3.22,-3.22,-1.82
-10.55,-4.58,2.08,0.07,0.07,0.07
-11.19,-4.97,2.24,1.05,1.05,1.05
-11.45,-5.11,2.33,4.69,4.69,4.69
-11.5,-4.57,2.4,6.79,7.14,7.14
-11.5,-3.51,2.45,6.86,6.44,6.44
-11.53,-2.62,2.52,3.78,3.78,3.78
-11.48,-2.1,2.52,2.87,2.87,2.87
-11.56,-2.21,2.43,6.72,7.42,7.42
-11.67,-2.21,2.33,13.37,14.49,14.49
-11.63,-2.02,2.33,19.04,21.7,21.7
-11.53,-1.79,2.25,27.79,27.79,27.79
-11.44,-1.42,2.25,32.76,32.97,32.97
-11.3,-0.91,2.24,33.04,32.48,32.48
-11.05,-0.5,2.24,30.87,30.52,29.75
-10.82,-0.09,2.2,25.41,25.41,24.85
-10.71,0.03,2.09,19.53,19.53,19.53
-10.8,-0.1,1.94,18.34,18.27,18.27
-10.74,0.18,1.96,18.13,18.13,17.64
-10.46,0.84,1.83,15.75,15.75,15.75
-10.16,1.5,1.71,11.76,11.76,11.76
-9.86,1.72,1.57,10.36,10.36,10.36
-9.56,1.85,1.56,11.55,11.55,11.83
-9.38,1.79,1.47,15.12,15.12,15.12
-9.11,1.9,1.47,22.12,23.73,23.73
-8.62,2.63,1.53,27.44,27.44,27.79
-8.19,3.12,1.5,29.82,29.82,29.82
-7.91,3.53,1.58,30.17,30.17,30.17
-7.59,4.18,1.58,28,28,28
-7.57,4.59,1.6,24.08,24.08,24.08
-7.29,5.18,1.58,19.18,19.18,19.18
-6.82,5.57,1.54,13.86,13.86,13.86
-6.44,5.83,1.49,11.41,11.41,11.41
-6.25,6.19,1.52,8.61,8.61,8.61
-6.18,6.36,1.42,6.93,6.93,6.93
-6.09,6.33,1.46,7.49,8.4,8.4
-5.74,6.48,1.37,11.06,11.06,11.06
-5.33,7.13,1.47,9.8,9.8,9.8
-4.77,7.97,1.56,5.18,5.18,5.18
-4.26,7.96,1.42,-1.4,-1.4,-1.4
-3.42,7.99,1.37,-3.15,-3.15,-3.43
-2.87,8.26,1.42,-7.28,-7.28,-7.77
-2.39,8.36,1.56,-9.73,-10.29,-10.29
-1.79,8.35,1.6,-11.2,-11.27,-11.27
-1.46,8.39,1.72,-13.02,-13.02,-13.44
-0.87,8.58,1.78,-15.75,-16.87,-17.57
-0.38,8.66,1.95,-21,-22.33,-22.96
-0.21,8.38,1.93,-24.85,-24.85,-25.83
-0.04,8.19,1.97,-26.74,-26.74,-27.09
0.32,7.98,2.01,-26.88,-26.88,-26.81
0.89,8.08,2.16,-27.3,-27.72,-27.93
2.39,8.42,2.46,-32.55,-32.55,-32.62
2.43,7.54,2.48,-30.38,-30.38,-29.68
2.54,7.45,2.69,-22.12,-22.12,-21.28
3.19,7.9,2.92,-17.71,-17.71,-17.29
3.69,8.21,3.05,-15.05,-15.05,-15.05
4.07,8.34,3.03,-14.98,-14.56,-14.56
3.99,7.84,3.05,-11.34,-11.34,-9.8
3.82,7.7,3.16,-5.11,-5.11,-5.11
3.89,8.26,3.25,-2.17,-2.17,-2.17
4.12,8.54,3.2,-4.2,-4.2,-4.2
3.94,8.26,3.1,-4.83,-4.83,-4.83
3.51,7.5,2.96,0.49,0.49,0.49
3.42,7.56,2.95,6.3,6.3,6.3
3.58,8.45,3.1,3.71,2.8,2.8
3.81,9.15,3.07,-3.85,-4.69,-4.69
3.41,8.36,2.99,-8.33,-7.56,-7.07
2.45,7.45,2.93,-0.63,-0.63,0.28
2.69,8.51,3.12,3.85,3.85,3.5
3.06,9.21,3.31,-2.03,-2.03,-2.03
2.56,8.56,3.21,-2.52,-2.52,-2.52
2.49,8.52,3.2,-0.56,-0.56,-0.56
2.83,9.04,3.15,-2.24,-2.24,-2.94
2.9,8.8,2.99,-3.85,-3.92,-3.92
2.97,8.29,2.86,-0.56,-0.14,-0.14
3.05,8.22,2.89,2.31,2.31,2.31
3.03,8.55,2.95,1.47,-0.14,-0.14
2.82,8.65,3.09,-3.99,-3.99,-4.48
2.42,8.16,3.08,-5.6,-5.46,-5.46
2.23,7.94,3.01,-2.45,-1.96,-1.96
2.43,8.56,3.11,-1.61,-1.61,-1.61
2.21,8.69,3.14,-3.92,-3.92,-3.99
1.3,7.98,3.16,3.08,3.08,3.78
1.26,8.43,3.17,6.44,6.44,6.44
1.09,8.87,3.16,4.48,4.48,4.48
0.76,8.82,3.11,3.22,3.22,3.22
0,8.72,3.04,4.97,4.97,4.62
-0.24,8.84,2.93,3.22,3.22,2.94
-0.57,8.48,2.68,3.57,3.57,3.57
-0.54,8.56,2.65,3.92,3.57,3.57
-0.57,8.82,2.72,0.42,-1.12,-1.75
-1.25,8.39,2.63,-4.27,-4.62,-5.11
-1.93,8.18,2.88,-4.9,-4.9,-4.97
-1.77,8.39,2.96,-6.16,-6.16,-6.51
-2.11,8.22,2.9,-7.63,-7.63,-7.77
-2.37,7.97,2.94,-7.98,-7.98,-7.98
-2.69,7.81,3.02,-5.53,-5.53,-5.53
-2.79,8,3.05,-5.04,-5.04,-5.04
-2.84,7.96,2.98,-6.44,-6.44,-6.44
-3.05,7.57,2.86,-7.35,-7.35,-7.14
-3.72,7.1,2.8,-4.83,-4.83,-4.83
-4.17,7.03,2.95,-1.47,-1.47,-1.47
-4.76,7.12,3,-1.75,-1.75,-1.75
-5.28,7.1,2.9,-1.82,-1.82,-1.82
-5.75,6.66,2.85,-0.14,0.98,0.98
-6.34,6.27,2.76,5.32,5.32,5.32
-7.26,6.21,2.74,9.59,9.59,9.59
-7.58,6.59,2.86,9.59,9.45,9.45
-7.54,6.57,2.64,8.68,8.68,8.54
-7.4,6.63,2.66,6.86,6.86,6.44
-8.01,6.44,2.73,2.73,1.54,1.54
-8.4,6.17,2.62,-1.68,-2.66,-2.66
-8.66,5.67,2.52,-3.64,-3.29,-3.29
-8.63,5.11,2.52,-0.77,-0.77,-0.77
-8.24,5.63,2.58,-2.8,-3.85,-3.85
-8.44,6.05,2.65,-13.72,-13.72,-15.05
-8.85,5.49,2.56,-22.4,-22.89,-22.89
-9.12,4.55,2.46,-23.31,-22.54,-22.54
-8.51,4.57,2.34,-21.28,-21.28,-21.28
-8.48,4.5,2.33,-24.92,-24.92,-24.92
-8.76,3.68,2.14,-21.56,-21.56,-21.56
-8.93,2.68,2.11,-12.53,-12.53,-12.53
-8.45,2.79,2.14,-2.52,-2.03,-2.03
-8.17,3.31,2.47,-2.87,-3.29,-3.29
-8.49,2.96,2.41,-6.93,-6.93,-7.35
-9.13,1.89,2.33,-7.35,-7.35,-7
-9.33,1.52,2.28,-4.27,-4.27,-4.27
-9.12,1.68,2.23,-2.45,-2.45,-2.66
-9.53,1.46,2.18,-3.92,-3.92,-3.92
-9.83,1.37,2.1,-4.2,-4.2,-4.2
-9.98,0.93,1.94,-3.5,-3.22,-3.22
-9.21,0.29,1.78,-6.23,-6.51,-6.51
-9.56,-0.14,1.77,-8.26,-8.47,-8.47
-10.04,-0.91,1.85,-8.82,-8.4,-8.4
-10.35,-1.85,1.79,-6.51,-5.18,-5.18
-10.67,-2.27,1.81,-3.15,-2.52,-2.52
-11,-2.6,1.93,-2.31,-2.17,-2.24
-11.25,-2.79,1.91,-2.31,-2.38,-2.38
-11.79,-3.29,1.93,-0.63,-0.21,-0.21
-11.55,-3,1.96,0.91,0.91,0.91
-11.06,-2.1,2.07,-2.24,-2.24,-2.24
-11.03,-1.57,2.14,-9.45,-9.45,-9.45
-10.89,-1.34,2.09,-15.82,-15.82,-15.82
-10.77,-1.56,2.14,-16.38,-16.38,-16.38
-10.64,-1.79,2.16,-15.33,-14.49,-14.49
-10.72,-2.19,2.16,-11.41,-11.41,-10.85
-10.83,-2.38,2.1,-4.2,-4.2,-4.2
-10.8,-2.6,2.12,2.17,2.17,2.17
-10.67,-2.5,2.12,10.43,10.43,10.43
-10.39,-1.97,2.13,11.83,11.62,11.62
-10.11,-1.65,2.13,8.54,7.84,7.84
-9.81,-1.72,2.02,3.78,3.29,3.29
-9.58,-2.12,1.9,1.54,1.19,1.19
-9.41,-2.32,1.79,-0.84,-0.84,-1.19
-9.26,-2.46,1.76,-3.92,-3.92,-4.2
-9.19,-2.68,1.69,-5.53,-5.88,-5.95
-8.92,-3.01,1.58,-5.04,-5.04,-5.04
-8.62,-3,1.47,-2.38,-2.03,-2.03
-8.4,-2.89,1.48,-0.84,-0.35,-0.35
-8.3,-2.69,1.56,0.42,0.42,0.42
-8.27,-2.65,1.7,0.7,0.7,0.7
-8.43,-2.61,1.77,0.35,0.42,0.42
-8.54,-2.48,1.94,-0.98,-0.98,-1.12
-8.81,-2.73,1.94,-2.17,-2.17,-2.17
-8.94,-2.92,1.92,-2.31,-2.03,-2.03
-9.09,-3.04,1.89,-1.4,-1.05,-1.05
-9.3,-2.98,1.94,-0.28,-0.21,-0.14
-9.42,-2.71,2.05,-0.28,-0.42,-0.42
-9.48,-2.41,2.14,-2.87,-3.43,-3.43
-9.5,-2.45,2.12,-5.88,-5.88,-6.16
-9.65,-2.7,2.06,-5.95,-5.95,-5.95
-9.76,-2.82,2.06,-4.83,-4.48,-4.48
-9.79,-2.79,2.08,-3.36,-3.36,-2.94
-9.73,-2.82,2.11,-1.89,-1.89,-1.54
-9.65,-2.8,2.1,-0.21,-0.21,-0.21
-9.56,-2.72,2.12,1.05,1.19,1.19
-9.47,-2.64,2.11,1.4,1.4,1.4
-9.32,-2.72,2.09,1.19,1.19,1.19
-9.31,-2.74,2.04,1.26,1.26,1.26
-9.29,-2.84,2.01,1.33,1.33,1.33
-9.24,-2.87,1.99,1.75,1.75,1.82
-9.11,-2.64,2.01,1.68,1.68,1.68
-9.01,-2.5,2.01,0.07,0.07,0.07
-8.86,-2.45,1.96,-1.4,-1.82,-1.82
-8.92,-2.62,1.92,-2.17,-2.17,-2.24
-8.97,-2.88,1.89,-1.68,-1.68,-1.68
-9.21,-3.24,1.91,-0.21,0.28,0.28
-9.28,-3.33,1.96,1.82,1.82,2.24
-9.18,-3.31,2.01,3.29,3.29,3.29
-9.14,-3.13,2.01,2.73,2.59,2.59
-9.19,-3.06,2.01,1.82,1.68,1.68
-9.39,-3.24,2.03,1.26,1.33,1.33
-9.5,-3.27,2.03,1.68,1.68,1.61
-9.6,-3.27,2.01,1.75,1.75,1.75
-9.67,-3.12,1.99,1.61,1.61,1.61
-9.87,-3.13,1.94,1.19,1.19,1.19
-10.16,-3.19,1.93,0.91,0.91,0.91
-10.39,-3.09,1.97,0.42,0.42,0.35
-10.94,-2.83,2,-0.84,-0.84,-1.19
-11.13,-2.59,2.1,-4.2,-4.2,-4.2
-10.87,-2.03,2.02,-6.51,-6.51,-6.51
-10.52,-1.65,2,-9.1,-9.1,-9.1
-10.23,-1.39,1.95,-10.57,-10.57,-10.85
-10.02,-1.32,1.91,-11.48,-11.48,-11.48
-9.76,-1.35,1.98,-11.48,-11.48,-11.48
-9.49,-1.33,2.03,-11.41,-11.41,-11.41
-9.18,-1.39,1.96,-10.99,-10.99,-10.85
-8.79,-1.7,1.97,-9.52,-9.52,-9.52
-8.62,-2.1,1.93,-6.51,-6.51,-6.51
-8.56,-2.44,2.06,-1.54,-1.05,-1.05
-8.39,-2.24,2.18,0.98,0.91,0.91
-8.37,-2.15,2.26,-0.07,-0.28,-0.28
-8.27,-2.12,2.19,-2.1,-2.31,-2.31
-8.13,-1.83,2.2,-5.74,-6.3,-6.3
-8.05,-1.79,2.25,-10.01,-10.01,-10.01
-8.11,-1.86,2.24,-14.07,-14.07,-14.07
-8.11,-2.01,2.26,-14.21,-13.86,-13.86
-8.07,-1.94,2.22,-12.11,-11.9,-11.9
-8.11,-2.01,2.24,-9.31,-9.31,-9.31
-8.13,-2.01,2.25,-4.13,-4.13,-4.13
-8.37,-2.12,2.25,-0.14,-0.14,-0.14
-8.49,-2.25,2.29,3.78,3.78,3.78
-8.65,-2.48,2.3,10.43,10.43,10.43
-8.9,-2.56,2.35,14.7,14.7,14.7
-9.17,-2.63,2.44,16.8,16.59,16.59
-9.35,-2.89,2.43,16.24,16.03,16.03
-9.54,-3.35,2.33,15.89,15.89,15.89
-9.79,-3.67,2.17,18.48,18.83,18.83
-9.93,-3.4,2.09,19.53,19.25,19.25
-9.87,-2.74,1.98,17.57,15.96,15.96
-9.69,-2.3,1.84,12.88,12.32,11.06
-9.48,-2.12,1.61,7.84,7.84,7.35
-9.5,-2.3,1.41,6.02,6.02,6.02
-9.59,-2.47,1.27,6.86,6.86,7
-9.68,-2.64,1.23,9.73,9.73,9.73
-9.94,-2.98,1.15,12.95,12.95,12.95
-10.18,-3.13,1.14,15.19,15.19,15.19
-10.27,-3.2,1.12,16.59,16.59,16.59
-10.28,-3.35,1.02,16.66,16.66,16.8
-10.14,-3.34,1.07,15.96,15.96,15.82
-10.01,-3.22,1.13,14.21,13.51,12.95
-9.75,-3.03,1.25,8.96,8.96,8.96
-9.5,-2.82,1.32,2.03,2.03,2.03
-9.36,-2.76,1.3,-2.24,-2.24,-2.94
-9.21,-2.76,1.23,-6.44,-6.44,-6.79
-9.14,-2.81,1.29,-10.08,-10.08,-10.08
-9.21,-3.2,1.2,-10.99,-10.99,-10.99
-9.28,-3.55,1.16,-8.96,-8.4,-7.14
-9.48,-3.85,1.05,-3.64,-2.8,-1.05
-9.6,-3.92,1,4.55,4.55,5.32
-9.66,-3.61,1.11,9.03,9.03,9.52
-9.66,-3.2,1.12,9.59,9.59,9.03
-9.73,-2.97,1.13,7,7,6.58
-9.75,-2.71,1.15,3.29,3.29,3.29
-9.75,-2.49,1.15,-1.68,-1.68,-1.68
-9.64,-2.29,1.1,-6.79,-6.79,-6.79
-9.5,-2.13,1.05,-12.74,-12.74,-12.74
-9.49,-2.17,1.11,-16.52,-16.52,-16.52
-9.47,-2.23,1.16,-18.83,-18.83,-18.83
-9.49,-2.47,1.19,-18.2,-17.99,-17.99
-9.49,-2.58,1.24,-11.9,-10.92,-10.92
-9.42,-2.49,1.23,-7.7,-7.7,-7.28
-9.36,-2.58,0,-2.94,-2.94,-2.94
-9.22,-2.27,1.26,-1.19,-1.19,-1.19
-8.98,-1.65,1.37,-5.81,-5.81,-7.07
-8.91,-1.69,1.41,-9.59,-9.59,-10.22
-9.03,-2.01,1.34,-11.06,-10.99,-10.99
-9.17,-2.17,1.33,-10.99,-10.99,-10.85
-9.27,-2.29,1.26,-10.5,-10.15,-9.87
-9.34,-2.53,1.29,-7.7,-7.7,-7.7
-9.34,-2.6,1.34,-3.99,-3.64,-3.64
-9.29,-2.58,1.45,-1.54,-0.56,-0.56
-9.25,-2.52,1.5,1.26,2.03,2.03
-9.1,-2.28,1.54,2.8,2.87,3.01
-9.15,-2.01,1.47,0.42,0.42,0.21
-9.61,-2.1,1.48,-0.07,-0.07,-0.42
-10.05,-2.15,1.48,-0.49,-0.49,-0.63
-10.34,-1.94,1.46,-0.7,-0.7,-0.77
-10.62,-1.93,1.41,-0.98,-0.98,-0.98
-10.78,-2.11,1.34,-0.35,0.14,0.35
-10.95,-2.29,1.27,2.24,2.24,3.43
-11.18,-2.33,1.24,5.88,5.88,6.16
-11.18,-2.21,1.28,7.7,7.7,7.7
-10.86,-1.69,1.35,7.56,7.49,7.49
-10.44,-1.34,1.4,5.32,5.04,5.04
-10.09,-1.03,1.48,0,0,-0.56
-9.67,-0.92,1.46,-3.36,-3.85,-3.85
-9.3,-0.9,1.5,-6.51,-7.07,-7.28
-8.96,-0.97,1.6,-8.05,-8.05,-8.61
-8.79,-1.08,1.62,-9.1,-9.1,-9.31
-8.77,-1.39,1.64,-9.66,-9.66,-9.59
-8.74,-1.66,1.61,-9.1,-9.1,-8.96
-8.77,-2.25,1.55,-7.21,-7.21,-6.93
-8.78,-2.59,1.51,-4.48,-4.48,-4.48
-9,-2.98,1.55,2.8,2.8,2.8
-8.92,-2.67,1.67,1.89,1.68,1.68
-8.79,-2.28,1.74,-0.49,-1.82,-1.82
-8.63,-1.94,1.75,-4.27,-4.62,-5.18
-8.61,-1.81,1.76,-8.05,-9.31,-9.31
-8.53,-1.63,1.7,-11.13,-11.55,-12.18
-9.79,-1.67,1.63,-13.37,-13.51,-13.51
-8.63,-1.68,1.48,-12.95,-12.95,-12.6
-8.87,-1.74,1.51,-10.64,-10.64,-10.5
-9.16,-1.78,1.53,-8.75,-8.75,-8.54
-9.65,-2.12,1.38,-6.58,-6.58,-6.58
-9.86,-2.36,1.49,-7.07,-7.07,-7.07
-10.15,-2.46,1.67,-7.63,-7.63,-7.63
-10.19,-2.36,1.74,-8.19,-8.33,-8.33
-10.13,-2.12,1.8,-10.01,-10.01,-10.22
-10.02,-2.06,1.88,-10.99,-10.99,-10.92
-9.96,-2.07,1.94,-10.08,-9.66,-9.66
-9.92,-1.61,2.29,-8.05,-8.05,-8.05
-9.96,-1.84,2.26,-4.2,-4.2,-4.2
-10.05,-2.1,2.19,-0.35,1.05,1.05
-10.2,-2.19,2.21,5.25,5.25,5.67
-10.38,-2.28,2.15,8.75,8.75,8.75
-10.55,-2.34,2.07,10.36,10.36,10.36
-10.68,-2.26,2.11,10.99,10.99,10.99
-10.76,-2.02,2.12,9.59,8.82,8.82
-10.68,-1.71,2.11,5.95,5.95,4.9
-10.49,-1.55,2,1.26,1.26,1.26
-10.31,-1.55,1.94,-0.07,-0.21,-0.21
-9.9,-1.36,1.82,1.96,1.96,2.1
-9.61,-1.1,1.78,2.38,2.38,2.31
-9.27,-0.92,1.75,2.24,2.24,2.1
-8.97,-0.84,1.72,1.54,1.54,1.47
-8.81,-0.92,1.71,1.12,1.12,1.05
-8.71,-0.94,1.73,0.84,0.84,0.7
-8.63,-0.88,1.73,0.14,0.14,-0.14
-8.42,-0.85,1.74,-0.56,-0.56,-0.56
-8.13,-0.62,1.8,-1.96,-1.96,-1.96
-7.9,-0.46,1.84,-3.57,-3.57,-4.34
-7.92,-0.5,1.97,-7.42,-7.42,-7.42
-8.11,-0.77,1.96,-9.66,-9.66,-9.66
-8.51,-1.27,1.97,-8.82,-8.61,-8.61
-9.04,-1.82,2.01,-5.74,-5.18,-5.18
-9.34,-1.85,2.07,-1.82,-1.47,-1.47
-9.48,-1.75,2.14,-1.19,-1.47,-1.75
-9.54,-1.7,2.17,-3.71,-3.71,-3.71
-9.51,-1.44,2.18,-5.6,-5.6,-5.6
-9.4,-1,2.14,-9.45,-9.45,-9.45
-9.3,-0.47,2.14,-13.58,-15.12,-15.12
-9.21,-0.27,2.01,-20.37,-20.37,-21.21
-9.3,-0.45,1.78,-24.64,-24.64,-24.64
-9.57,-0.78,1.61,-24.5,-24.01,-24.01
-9.85,-1.17,1.4,-21.49,-20.44,-20.44
-10.15,-1.51,1.25,-16.38,-16.38,-14.91
-10.42,-1.78,1.11,-10.22,-10.22,-10.22
-10.52,-1.79,1,-3.99,-3.99,-3.99
-10.51,-1.61,1.08,-0.07,-0.07,-0.07
-10.42,-1.4,1.14,-0.07,-0.07,-0.07
-10.34,-1.35,1.16,-1.19,-1.19,-1.19
-10.13,-1.08,1.22,-2.31,-2.66,-2.66
-10.01,-1.01,1.16,-4.48,-4.48,-4.83
-9.86,-0.87,1.14,-7.77,-7.77,-7.77
-9.85,-0.88,1.11,-9.31,-9.73,-9.73
-9.88,-0.97,1.02,-10.08,-10.08,-10.15
-9.88,-0.9,1.01,-9.94,-9.94,-9.94
-9.93,-1.06,0.91,-8.47,-8.47,-8.47
-10.19,-1.68,0.7,3.29,3.29,4.2
-10.27,-1.67,0.69,10.36,10.36,10.36
-10.33,-1.51,0.73,14.21,14.21,14.21
-10.33,-1.38,0.75,16.59,16.59,16.59
-10.24,-1.2,0.78,17.15,17.15,17.15
-10.2,-1.06,0.83,16.03,15.75,15.75
-10.2,-0.94,0.8,13.02,12.67,12.67
-10.1,-0.88,0.77,7.7,7.7,7
-9.92,-0.84,0.74,2.59,2.59,2.03
-9.78,-1.04,0.59,-0.28,-0.28,-0.28
-9.15,-1.23,0.2,0.77,0.84,0.84
-8.88,-1.15,0.1,1.26,1.05,1.05
-8.88,-0.95,0.17,0,-0.35,-0.35
-9.15,-0.91,0.5,-2.8,-2.8,-3.01
-9.41,-1.04,0.59,-3.29,-3.29,-3.29
-9.51,-1.21,0.46,-0.21,0.35,0.35
-9.75,-1.41,0.45,3.92,6.23,6.23
-9.98,-1.56,0.56,10.92,13.93,13.93
-10.16,-1.56,0.72,20.3,20.3,20.3
-10.16,-1.31,0.89,26.11,26.11,26.11
-10.06,-0.89,1,26.88,26.39,26.39
-9.92,-0.4,1.22,23.31,23.31,21.63
-9.78,-0.02,1.34,14.14,12.95,12.95
-10.12,-1.17,1.28,-2.45,-2.17,-2.17
-10.23,-1.57,1.26,4.76,4.76,5.81
-10.13,-1.58,1.34,10.99,13.09,13.93
-9.88,-1.15,1.59,17.99,19.11,19.67
-9.51,-0.66,1.77,21.42,21.42,21.7
-9.26,-0.29,1.92,21.07,21.07,20.79
-9.18,-0.13,2.03,17.64,17.64,15.82
-9.8,-0.38,1.95,6.44,6.44,6.44
-9.87,0,1.97,3.57,2.38,2.38
-9.9,0.27,1.98,-1.68,-1.68,-2.94
-9.99,0.14,1.87,-6.51,-6.51,-6.51
-10.11,-0.21,1.68,-7.07,-7.07,-6.86
-10.23,-0.49,1.38,-4.27,-4.27,-4.27
-10.38,-0.55,1.25,-1.89,-1.89,-1.19
-10.42,-0.72,1,1.47,1.47,1.47
-10.4,-0.74,0.84,2.59,2.59,2.59
-10.3,-0.67,0.73,1.61,0.21,0.21
-10.21,-0.54,0.83,-2.94,-3.64,-5.11
-9.98,-0.57,1.01,-8.54,-9.03,-9.03
-9.69,-0.71,1.03,-11.83,-12.04,-12.32
-9.37,-0.89,0.97,-11.97,-11.62,-11.62
-9.26,-1.28,0.94,-7.98,-7.28,-7.28
-9.23,-1.5,0.97,-0.98,0.07,0.07
-9.23,-1.54,1.08,7,7.91,7.91
-9.17,-1.23,1.16,11.06,11.76,12.11
-9.01,-0.55,1.26,11.06,11.06,11.06
-8.89,-0.1,1.37,4.83,3.85,3.85
-8.82,0.2,1.38,-0.21,-2.38,-2.38
-8.88,0.25,1.27,-6.16,-6.16,-6.16
-9.1,0.14,1.12,-8.89,-8.89,-8.89
-9.39,-0.11,1.01,-9.24,-9.24,-9.24
-9.63,-0.44,0.84,-7.63,-7.42,-7.42
-10.06,-0.59,0.78,-3.57,-3.15,-3.15
-10.09,-0.52,0.74,-2.38,-2.17,-2.17
-10.01,-0.54,0.62,-1.82,-1.75,-1.75
-9.99,-0.63,0.52,-1.05,-1.12,-1.12
-9.86,-0.42,0.56,-1.61,-1.61,-1.96
-9.71,-0.41,0.58,-5.04,-5.04,-5.6
-9.7,-0.6,0.67,-8.54,-8.54,-8.89
-9.76,-0.91,0.59,-10.15,-10.15,-10.15
-9.82,-1.02,0.6,-9.66,-9.59,-9.59
-9.85,-1.02,0.53,-9.73,-9.73,-9.73
-9.76,-1.04,0.44,-9.45,-9.45,-9.45
-9.68,-1.19,0.41,-7.21,-7.21,-7.21
-9.7,-1.35,0.48,-4.13,-4.13,-4.13
-9.86,-1.56,0.5,0.49,0.49,0.49
-9.98,-1.84,0.46,5.95,8.19,8.19
-9.93,-2.07,0.45,15.61,18.41,18.41
-9.92,-2.17,0.43,26.95,26.95,29.47
-9.61,-1.56,0.59,35.42,35.77,35.77
-9.41,-1.01,0.71,34.79,34.79,33.04
-9.61,-1.64,0.87,21.28,20.51,20.51
-9.9,-1.95,0.9,17.15,17.15,16.66
-10.02,-1.89,0.85,14.77,14.77,14.77
-9.89,-1.55,0.82,13.58,13.58,13.58
-9.74,-1.06,0.78,12.39,12.39,12.39
-9.73,-0.71,0.72,10.78,10.78,10.78
-9.76,-0.55,0.64,9.8,9.24,9.24
-9.82,-0.46,0.59,7.63,7.63,7.14
-10.05,-0.73,0.45,6.09,6.09,5.6
-10.48,-1.28,0.37,5.32,5.39,5.39
-10.82,-1.67,0.34,6.09,6.37,6.37
-10.98,-1.96,0.35,7.7,7.7,8.05
-10.97,-1.95,0.46,8.47,8.47,8.47
-10.92,-1.73,0.62,7.14,7.14,7.14
-10.77,-1.3,0.84,3.15,2.73,2.73
-10.75,-0.95,0.95,-1.05,-1.05,-1.05
-10.62,-0.81,0.99,-2.73,-2.73,-2.73
-10.34,-0.51,1.1,-0.84,-0.56,-0.42
-10.08,-0.17,1.19,-0.42,-0.42,-0.77
-9.63,0.16,1.23,-2.1,-2.1,-2.1
-9.27,0.19,1.22,-4.06,-4.06,-4.06
-8.84,0.29,1.23,-5.32,-6.16,-6.16
-8.69,0.34,1.29,-9.31,-9.31,-10.71
-8.78,0.05,1.47,-15.47,-15.47,-15.47
-9.02,-0.42,1.62,-17.22,-17.22,-17.22
-9.27,-1.05,1.67,-15.82,-15.82,-15.47
-9.46,-1.29,1.65,-12.18,-12.18,-11.62
-9.49,-1.28,1.62,-4.97,-4.97,-4.97
-9.42,-1.12,1.69,-0.07,1.54,1.54
-9.02,-0.68,1.85,6.93,6.93,6.93
-8.62,-0.33,2.03,9.24,9.24,9.24
-8.48,-0.01,2.17,7.28,7.28,7.28
-8.47,0.16,2.21,3.22,3.22,3.22
-8.62,0.13,2.06,0.42,-0.42,-0.42
-8.8,-0.07,1.92,-1.4,-1.4,-1.4
-9.21,-0.33,1.9,-0.77,-0.77,-0.49
-9.7,-0.49,1.93,0.49,0.7,0.7
-9.99,-0.51,1.94,1.4,1.4,1.4
-10.05,-0.4,1.75,2.45,2.45,2.45
-10.18,-0.42,1.59,3.29,3.29,3.29
-10.41,-0.61,1.54,4.76,4.76,4.76
-10.62,-0.53,1.47,5.46,5.46,5.46
-10.67,-0.19,1.46,3.01,3.01,3.01
-10.58,0.05,1.4,0.07,0.07,0.07
-10.43,0.04,1.28,-0.63,-0.63,-0.63
-10.49,-0.02,1.29,0.14,0.42,0.42
-10.73,0.11,1.43,0.14,-0.21,-0.21
-10.99,0.38,1.64,-2.73,-2.73,-3.92
-10.98,0.69,1.77,-6.72,-6.72,-6.72
-10.9,0.68,1.83,-8.4,-8.4,-8.4
-10.93,0.67,1.87,-7.84,-7.84,-7.63
-10.99,0.74,2.08,-6.93,-6.93,-6.93
-11.19,0.98,2.21,-6.37,-6.37,-6.37
-12.06,0.74,2.19,-3.57,-3.57,-3.57
-13.66,0.42,2.6,5.88,5.88,5.88
-15.28,0.86,3.1,9.73,9.73,9.73
-15.71,2.44,3.24,6.44,4.2,4.2
-15.84,3.64,3.01,-3.01,-3.01,-5.25
-16.25,3.7,2.85,-9.03,-9.03,-9.03
-17.37,2.69,2.74,-5.39,-4.55,-4.55
-18.09,2.25,2.54,14.91,14.91,17.01
-15.4,4.3,2.48,17.36,17.36,16.38
-12.75,5.5,2.28,-0.98,-0.98,-3.57
-9.76,4.98,2.05,-16.31,-17.85,-17.85
-8.51,2.88,1.67,-23.38,-23.38,-22.61
-7.42,0.64,1.37,-15.68,-15.68,-13.93
-6.07,-0.51,1,5.46,5.46,5.46
-4.61,-0.64,1.01,16.24,18.55,18.55
-2.78,0.11,0.69,21.35,21.35,21.35
-1.2,0.9,0.6,17.08,15.4,15.4
0.51,1.05,0.19,10.57,10.57,9.94
2.32,1.36,0,4.9,4.9,4.9
4.13,2.21,0.12,-0.42,-2.73,-2.73
7.84,4.7,1.08,-24.29,-24.29,-24.29
8.62,5.69,1.71,-31.01,-31.43,-31.43
8.44,6.78,2.18,-34.44,-36.4,-36.4
7.88,7.41,2.75,-40.74,-41.37,-41.37
7.02,7.76,3.16,-43.82,-44.1,-44.1
5.72,7.6,3.56,-42.28,-40.67,-39.69
4.25,7.49,3.93,-31.57,-31.57,-30.31
2.9,8.01,4.15,-23.1,-23.1,-21.77
2.06,8.25,4.15,-12.74,-12.74,-12.74
1.23,8.26,4.06,-1.19,-1.19,-1.19
0.59,8.35,4.05,3.57,3.57,3.57
-0.03,7.97,3.85,9.1,9.73,9.73
-0.33,7.94,3.94,13.02,13.86,14.21
-0.45,8.33,3.83,14.91,14.91,14.91
-0.64,8.7,3.69,8.68,7.63,7.63
-0.87,8.51,3.57,1.47,0.84,0.84
-1.13,7.69,3.26,-0.91,-1.05,-1.05
-0.8,7.11,2.85,-0.63,-0.56,-0.42
-0.53,6.81,2.4,-1.54,-1.96,-1.96
-0.86,6.8,2.65,-6.37,-7.21,-7.21
-0.1,7.67,3,-23.24,-23.24,-23.24
-0.74,6.87,2.55,-27.16,-27.16,-27.16
-1.54,6.83,3.43,-31.01,-31.64,-31.64
-2.53,7.22,3.93,-41.65,-43.33,-43.33
-2.6,6.83,3.6,-44.87,-44.87,-44.87
-3.34,6.09,3.24,-42.49,-42.21,-42.21
-4.4,6.48,4.06,-40.46,-40.39,-40.39
-5.58,6.1,4.55,-39.62,-38.22,-38.22
-8.96,4.93,5.21,-18.9,-16.1,-16.1
-8.95,5.23,4.98,-9.73,-9.73,-9.38
-8.19,5.71,4.35,-7.63,-7.63,-7.63
-7.64,6.18,4.16,-6.58,-6.58,-6.58
-8.12,5.45,4,-6.02,-5.25,-5.25
-9.55,4.57,3.95,-2.1,-2.1,-1.47
-9.6,4.7,3.64,-0.42,-0.42,-0.42
-8.43,5.63,3.52,-6.65,-6.65,-6.65
-7.21,6.29,3.33,-24.29,-24.29,-24.29
-7.1,5.29,3.01,-37.66,-37.66,-37.66
-7.43,2.43,2.62,-39.27,-39.27,-39.27
-7.72,0.73,2.41,-30.17,-28.14,-28.14
-8.29,-0.1,2.54,-13.09,-13.09,-13.09
-10.19,-0.61,2.97,3.78,3.78,3.78
-11.54,-0.89,2.9,11.62,12.67,12.67
-11.55,-0.6,3,16.1,16.1,16.52
-11.8,-0.22,3.29,16.66,16.66,16.66
-12.55,-0.44,3.08,14.49,14.49,14.49
-13.15,-0.88,2.93,11.83,11.83,11.83
-12.96,-1.07,2.84,12.88,12.88,13.37
-12.39,-0.54,2.79,17.29,17.29,17.29
-6,-7.31,1.47,20.09,19.25,19.25
-5.89,-7.9,1.64,11.9,10.64,10.64
-5.91,-8.03,1.86,1.96,1.96,1.96
-6.06,-7.57,2.07,-7.91,-9.03,-9.03
-6.27,-7.2,2.23,-15.19,-15.96,-15.96
-6.41,-7.14,2.33,-20.37,-20.37,-20.37
-6.58,-7.37,2.33,-23.31,-23.31,-23.31
-6.67,-7.72,2.22,-22.26,-21.42,-21.42
-6.62,-8.13,2.22,-17.36,-15.61,-15.61
-6.41,-8.26,2.13,-10.22,-10.22,-8.33
-6.33,-8.37,1.91,-3.78,-2.8,-2.8
-6.26,-8.28,1.74,3.15,3.92,3.92
-6.07,-7.81,1.66,14.91,14.91,15.47
-5.83,-7.67,1.57,17.99,17.99,17.99
-5.47,-7.93,1.25,18.62,18.62,18.62
-5.21,-8.22,1.14,17.15,16.73,16.73
-5.14,-8.3,1.02,14.42,13.86,13.58
-5.19,-8.16,0.95,12.74,12.74,12.6
-5.29,-8.07,0.91,12.81,12.81,12.88
-5.33,-8.07,0.85,14.56,14.56,14.56
-5.31,-7.93,0.83,15.68,15.68,15.82
-5.37,-7.74,0.89,14.98,14.98,14.98
-5.5,-7.64,0.9,12.53,12.53,12.53
-5.6,-7.65,0.85,9.94,9.94,9.94
-5.73,-7.66,0.78,9.31,9.45,9.45
-5.85,-7.53,0.69,9.17,9.03,8.89
-6.04,-7.56,0.67,8.47,8.47,8.47
-6.05,-7.82,0.62,8.75,8.96,8.96
-6.1,-8.25,0.55,9.73,10.15,10.36
-6.09,-8.33,0.59,11.62,11.9,12.39
-6.04,-8.26,0.61,13.72,13.72,14.14
-5.94,-8.04,0.56,15.05,15.12,15.12
-5.87,-7.83,0.59,14.28,14.28,14.28
-5.78,-7.67,0.64,12.25,12.25,12.25
-5.78,-7.74,0.64,9.87,9.87,9.87
-5.74,-7.76,0.77,6.44,6.02,6.02
-5.69,-7.7,0.84,2.66,2.17,2.17
-5.61,-7.7,0.88,-0.63,-1.05,-1.05
-5.58,-7.85,0.88,-4.41,-4.41,-4.83
-5.61,-7.97,0.94,-6.09,-6.09,-6.23
-5.58,-7.95,0.97,-7.42,-7.42,-7.42
-5.57,-7.99,1.03,-8.82,-9.03,-9.03
-5.47,-8.11,1.01,-9.17,-9.1,-9.1
-5.46,-8.27,1.03,-8.4,-8.19,-8.19
-5.57,-8.42,1.07,-7.42,-6.65,-6.65
-5.65,-8.51,1.11,-4.62,-4.62,-4.62
-5.74,-8.6,1.14,-1.33,-0.91,-0.91
-5.82,-8.69,1.16,1.89,2.17,2.17
-5.85,-8.41,1.22,4.06,4.06,4.41
-5.89,-8.32,1.31,4.9,4.9,4.9
-5.91,-8.3,1.32,4.69,4.48,4.48
-5.98,-8.39,1.26,4.27,4.27,4.34
-6.06,-8.54,1.33,4.27,4.27,4.27
-6.15,-8.62,1.35,4.13,4.13,4.13
-6.27,-8.78,1.34,3.99,3.99,3.99
-6.38,-8.71,1.36,3.78,3.78,3.78
-6.38,-8.51,1.35,4.2,4.48,4.48
-6.34,-8.42,1.42,5.25,5.25,5.46
-6.41,-8.5,1.45,7.14,7.14,7.14
-6.61,-8.63,1.44,9.94,9.94,9.94
-6.69,-8.76,1.39,13.58,14.14,15.33
-6.78,-8.74,1.36,18.27,18.9,18.9
-6.94,-8.52,1.56,23.17,23.59,23.59
-7.18,-8.4,1.67,26.18,26.53,27.3
-7.27,-8.66,1.93,29.82,30.52,30.52
-7.49,-8.99,1.9,36.61,36.61,37.52
-7.7,-8.79,1.9,43.61,43.61,46.27
-7.91,-8.43,1.94,49.07,49.07,49.35
-7.9,-7.65,2.08,48.72,48.72,48.37
-7.87,-7.12,2.18,43.96,43.96,40.53
-7.93,-6.6,2.42,34.16,34.16,32.97
-8.13,-6.19,2.46,22.89,22.89,22.12
-8.41,-6.55,2.32,17.36,17.36,16.1
-8.71,-6.82,2.3,15.82,15.82,16.03
-9.06,-7.2,2.08,20.3,20.3,21
-9.15,-7.11,2.02,25.9,25.9,28.28
-9.42,-7.14,2.02,32.83,32.83,32.83
-9.52,-6.59,2.07,35.63,35.63,35.63
-9.49,-5.9,2.01,36.47,36.47,36.47
-9.3,-5.32,2.16,32.83,32.83,32.83
-9.02,-4.58,2.28,27.37,27.37,24.99
-8.94,-4.23,2.36,15.19,13.72,13.72
-9.39,-4.37,2.46,0.42,0.42,-0.77
-9.71,-4.13,2.64,-5.39,-5.39,-5.32
-9.82,-4.07,2.64,-4.13,-2.8,-2.24
-10.02,-3.26,2.56,1.33,1.33,3.5
-10.01,-2,2.42,8.05,8.05,8.05
-10.1,-1.46,2.43,11.34,11.34,11.34
-10.05,-0.88,2.41,16.1,16.66,16.66
-9.96,-0.65,2.35,20.65,21.35,21.35
-9.71,-0.42,2.34,24.29,24.43,24.43
-9.99,-0.56,2.31,25.27,25.27,25.2
-9.88,0.15,2.35,25.9,25.9,26.25
-8.82,0.91,2.29,28.14,28.14,28.14
-8.33,2.01,2.32,24.36,22.96,22.96
-7.93,2.57,2.32,18.9,18.9,17.78
-7.46,2.97,2.36,15.82,15.82,15.54
-6.92,3.43,2.44,15.4,15.4,15.4
-6.35,4.17,2.39,17.78,17.78,17.78
-5.73,4.45,2.34,19.88,20.3,20.3
-5.08,5.26,2.32,21.98,21.98,22.61
-4.3,5.82,2.2,23.31,23.31,23.1
-3.85,6.36,2.12,22.75,22.75,22.75
-3.56,6.73,2,22.68,23.03,23.03
-3.2,6.99,1.86,23.87,23.87,24.08
-2.61,7.37,1.75,23.87,23.87,23.87
-1.81,7.77,1.67,21.77,21.77,21.07
-1.27,8.09,1.49,18.76,18.76,18.76
-0.6,8.17,1.46,15.33,15.33,15.33
0.01,8.09,1.34,14.28,14.28,14.28
0.61,8.15,1.4,14.56,14.56,14.91
1.22,7.93,1.48,15.89,15.89,15.89
1.9,7.74,1.5,17.01,17.01,17.01
2.58,7.68,1.59,16.59,16.03,16.03
3.76,7.62,1.58,14.7,14.7,14.7
4.78,7.4,1.69,12.39,12.39,12.39
5.39,7.36,1.83,9.31,8.96,8.96
5.67,7.12,1.83,7.42,7.42,7.42
5.65,6.94,1.52,8.05,8.4,8.4
5.26,6.71,1.33,10.15,11.48,11.48
4.71,6.67,1.16,14.98,14.98,14.98
4.26,6.95,1.17,17.85,17.85,17.85
3.74,7.32,1.08,17.29,17.29,17.08
2.9,7.48,1.03,13.72,13.72,13.37
2.02,7.65,1.12,8.54,8.54,8.54
1.32,7.77,1.16,1.75,1.75,1.75
0.85,8.22,1.13,-6.23,-6.23,-6.23
0.21,8.22,1.17,-21.91,-21.91,-21.91
-0.67,7.69,1.23,-31.57,-34.16,-34.16
-2.15,6.75,1.22,-39.83,-40.88,-40.88
-3.75,5.97,1.12,-40.6,-40.6,-39.62
-4.76,5.61,1.07,-36.12,-36.12,-35.28
-5.14,5.6,1.46,-35.21,-35.21,-35.7
-5.87,5.1,1.7,-37.24,-37.24,-37.38
-6.85,4.03,1.45,-18.2,-35.42,-35.42
-7.61,3.27,1.48,-26.46,-26.46,-26.46
-8.16,3.38,1.75,-15.47,-14.49,-14.49
-8.56,2.4,2.04,-11.76,-11.13,-11.13
-9.02,2.05,1.87,-12.67,-12.95,-12.95
-8.56,1.55,2.07,-16.8,-17.22,-17.22
-8.81,0.96,2,-19.25,-20.37,-20.37
-9.77,-0.2,2.17,-21.35,-21.49,-21.49
-9.8,-0.75,2.61,-21.07,-20.93,-20.93
-9.87,-1.34,2.89,-22.12,-22.33,-22.33
-9.63,-1.18,2.71,-28.56,-28.56,-28.56
-9.07,-1.13,2.49,-34.86,-34.86,-35.35
-9.33,-2.14,2.47,-36.26,-36.26,-36.05
-8.9,-3.7,2.5,-32.48,-32.48,-31.71
-8.3,-4.78,2.33,-26.67,-26.67,-26.04
-7.8,-4.87,2.24,-24.08,-24.08,-24.08
-7.18,-4.94,2.43,-26.18,-26.18,-26.6
-6.81,-6.19,2.39,-30.45,-30.45,-31.08
-6.56,-6.96,2.4,-34.72,-34.72,-34.72
-6.17,-7.81,2.18,-34.65,-34.37,-34.37
-5.48,-7.8,2.39,-33.6,-33.6,-33.6
-5.02,-8.85,2.59,-35.21,-35.21,-35.21
-4.91,-10.55,2.55,-39.06,-39.06,-39.06
-4.74,-11.53,2.37,-42.28,-42.28,-42.28
-3.95,-11.59,2.5,-41.79,-41.65,-41.65
-3,-11.32,2.83,-40.67,-40.6,-40.6
-2.31,-11.62,2.96,-42.42,-42.42,-42.84
-2.2,-13.06,2.88,-46.27,-46.27,-46.69
-1.96,-13.71,2.73,-48.3,-47.81,-47.81
-1.41,-14.44,2.47,-43.54,-43.54,-43.54
-0.91,-14.61,2.55,-36.12,-36.12,-36.12
-0.59,-14.72,2.86,-33.04,-33.04,-33.04
-0.58,-14.17,3.23,-33.04,-33.32,-33.32
-0.39,-13.49,3.27,-33.88,-33.95,-33.95
-0.23,-12.59,3.1,-34.02,-34.02,-34.16
-0.1,-11.89,3.01,-35.35,-35.35,-35.63
0,-11.02,2.92,-37.38,-37.38,-37.8
0.27,-10.86,2.8,-39.27,-39.2,-39.2
0.66,-11.01,2.55,-37.52,-37.52,-37.24
0.84,-10.93,2.42,-33.81,-33.81,-33.11
0.8,-10.63,2.4,-30.24,-30.24,-29.96
0.78,-10.2,2.33,-27.93,-27.93,-27.93
0.6,-10.08,2.3,-29.05,-29.05,-29.05
0.41,-9.94,2.24,-30.45,-30.45,-30.45
0.38,-10.02,2.19,-30.1,-30.1,-30.1
0.59,-10.15,2.17,-28.21,-28.21,-27.3
1.14,-9.97,1.7,-21.77,-21.77,-21.77
1.14,-10.13,1.43,-19.81,-19.81,-19.81
1.05,-10.38,1.2,-13.79,-13.79,-13.79
0.9,-10.16,1.34,-6.72,-6.72,-6.72
0.82,-9.49,1.47,-2.1,-2.1,-0.7
0.78,-9.48,1.45,2.94,2.94,2.94
0.67,-9.7,1.45,9.1,9.1,9.1
0.58,-9.59,1.46,15.12,16.17,16.17
0.66,-9.44,1.45,22.12,22.12,22.12
0.55,-9.22,1.53,28.7,28.7,29.33
0.38,-9.06,1.69,33.6,33.6,33.6
0.31,-9.49,1.73,36.82,38.36,38.36
0.43,-10.16,1.64,44.38,44.38,46.69
0.6,-10.5,1.64,52.99,52.99,52.99
0.59,-10.15,2.06,57.4,57.4,57.4
0.6,-10.25,2.07,54.81,54.67,54.67
1.15,-10.74,2.07,56.63,56.63,57.26
1.67,-11.5,2.25,60.2,61.04,61.53
1.64,-12.28,2.59,62.72,62.72,62.58
1.26,-12.55,2.83,61.81,61.81,61.25
1.14,-12.9,2.51,63.42,63.42,63.42
1.1,-13.27,2.81,67.2,67.2,67.2
0.96,-13.64,3.56,70.42,70.42,70.42
0.44,-13.85,4.11,72.38,72.38,72.38
-0.52,-14.22,4.5,72.87,72.87,72.87
-1.07,-14.28,4.55,75.39,76.86,76.86
-1.34,-14.3,4.45,83.16,83.16,85.47
-2.01,-14.11,4.56,92.26,92.26,92.26
-2.85,-13.42,4.81,100.31,100.31,100.31
-3.65,-12.69,4.95,102.34,102.34,102.34
-4.64,-11.46,5.18,99.82,98.28,98.28
-5.48,-10.2,5.45,92.4,92.4,90.37
-6.27,-9.41,5.32,82.88,82.88,82.88
-7.39,-9.39,5.35,75.32,75.32,75.32
-8.44,-9.04,5.41,65.52,64.75,64.75
-9.17,-8.97,5.38,62.51,62.37,62.23
-9.9,-8.82,5.07,62.16,62.16,62.16
-10.18,-6.66,4.65,62.44,62.58,62.58
-10.06,-5.91,4.35,62.23,62.09,61.25
-9.95,-4.93,4.13,58.45,57.68,56.14
-8.95,-2.96,3.56,50.05,50.05,49.28
-8.35,-2.48,3.15,42.21,42.21,42.21
-7.8,-1.55,2.99,38.22,37.17,37.17
-6.85,-0.86,2.81,35.21,35.21,34.86
-4.86,1.05,1.71,35.42,35.42,35.63
-4.26,1.34,1.66,38.29,38.29,38.29
-3.82,1.96,1.6,41.02,41.02,41.02
-3.52,2.57,1.54,42,41.79,41.79
-3.13,3.4,1.65,39.27,39.27,39.27
-2.77,3.81,1.73,33.11,33.11,33.11
-2.57,4.11,1.7,28.91,28.91,28.91
-2.66,4.42,1.72,26.53,26.53,26.53
