aX,aY,aZ,gX,gY,gZ
5.86,2.49,4.91,-57.4,-57.4,-56
6.01,2.61,5.37,-43.89,-43.89,-42.7
5.91,2.77,5.6,-37.45,-37.45,-36.47
5.97,3.01,5.84,-29.47,-29.47,-29.47
5.25,2.95,6.12,-17.15,-17.15,-17.15
4.47,2.88,6.33,-11.76,-11.76,-11.76
4.03,2.97,6.71,-5.25,-5.25,-5.25
4.05,3.21,6.85,-2.66,-2.24,-2.24
4.34,3.42,7.03,-1.89,-2.24,-2.24
4.39,3.62,7.12,-3.15,-3.5,-3.5
4.02,3.62,7.32,-4.48,-4.48,-4.48
3.46,3.49,7.56,-5.67,-5.67,-5.67
3.1,3.44,7.67,-7,-7,-7
2.73,3.33,7.69,-8.05,-8.05,-8.05
2.65,3.24,7.74,-9.1,-9.03,-9.03
2.67,3.33,7.75,-10.99,-11.34,-11.34
2.65,3.33,7.75,-13.72,-14,-14
2.58,3.12,7.5,-16.1,-16.1,-16.24
2.2,2.69,7.12,-15.82,-15.82,-15.82
1.69,2.31,6.7,-12.74,-12.74,-12.74
1.47,2.2,6.38,-6.58,-6.58,-6.58
1.61,2.46,6.2,-4.48,-4.48,-4.48
2.29,2.64,6.12,-3.64,-3.22,-3.22
3.02,2.52,6.11,-1.82,-0.35,-0.35
3.57,2.58,6.3,3.78,3.78,3.78
4,2.82,6.59,5.88,6.3,6.3
4.04,2.86,6.61,7.14,7.21,7.56
5,3.04,6.79,8.82,8.89,8.89
5.53,2.92,6.68,10.99,10.99,10.99
5.7,2.82,6.57,13.44,14.21,14.21
6.03,2.77,6.47,16.17,16.38,16.38
6.02,2.74,6.02,18.69,18.69,18.69
6.4,2.92,5.72,17.57,17.57,17.57
6.74,3.07,5.75,15.19,15.19,15.19
6.72,2.9,5.76,14.42,14.42,14.42
7.19,3.14,5.7,13.44,12.67,12.67
7.4,3.2,5.57,10.29,9.45,9.45
7.94,3.24,5.58,7.7,7.7,7.28
7.99,3.1,5.36,7.14,7.14,7
8.26,3.32,5.26,6.09,6.09,6.09
8.44,3.45,4.93,3.36,3.01,3.01
9.06,3.53,4.82,0.77,0.77,0.35
9.49,3.46,4,-3.99,-4.62,-4.62
9.78,3.37,3.68,-7.35,-7.35,-7.7
9.71,3.15,3.19,-9.1,-9.1,-9.1
9.12,2.64,2.94,-6.51,-6.51,-6.51
8.59,2.62,2.68,-3.08,-3.08,-3.08
9.51,2.9,2.27,-3.15,-3.15,-3.15
9.82,2.81,1.91,-4.55,-4.55,-4.55
10,2.73,1.62,-3.99,-3.22,-3.22
9.58,2.42,1.28,-0.21,-0.21,0.98
9.05,2.21,0.92,4.9,4.9,4.9
8.71,2.14,0.4,11.13,11.13,11.13
9.07,2.32,-0.15,14.07,14.07,14.07
9.44,2.19,-0.57,16.31,16.31,16.31
9.67,2.03,-0.99,19.74,19.74,19.74
9.79,1.94,-1.54,25.62,26.25,26.25
10.18,1.99,-1.9,28.56,29.54,29.54
10.36,1.87,-2.4,30.31,30.45,30.45
10.63,1.71,-2.81,30.24,30.24,30.24
10.98,1.56,-3.18,30.03,29.96,30.1
11.24,1.34,-3.46,30.38,30.38,30.59
11.46,1.12,-3.57,31.99,31.99,32.13
11.39,0.96,-3.61,33.88,33.88,34.16
11.18,0.9,-3.55,35.49,35.49,35.49
11.02,0.95,-3.57,36.12,36.12,36.12
10.69,1.02,-3.52,35.7,35.49,35.49
10.58,1.17,-3.57,33.53,33.53,33.32
10.35,1.34,-3.52,31.85,31.29,30.87
10.14,1.43,-3.49,28.98,28.98,28.63
9.79,1.48,-3.28,26.04,26.04,26.04
9.4,1.51,-3.14,24.01,24.01,23.8
9.2,1.58,-3.1,20.72,20.72,20.72
9.24,1.6,-3.16,18.06,18.06,18.06
8.76,1.49,-2.93,16.31,16.1,16.1
8.82,1.48,-2.94,14.77,14.77,14.77
9,1.51,-3.11,12.6,12.32,12.32
9.15,1.52,-3.21,9.59,9.59,8.19
9.16,1.52,-3.22,5.88,5.88,5.39
9.24,1.52,-3.29,0.49,0.49,0
9.55,1.54,-3.54,-2.94,-2.94,-4.76
9.67,1.46,-3.64,-7.56,-7.56,-7.56
9.67,1.35,-3.62,-9.8,-9.8,-9.8
9.54,1.33,-3.65,-10.78,-10.78,-10.78
9.06,1.21,-3.57,-13.79,-13.79,-13.65
9.07,1.2,-3.6,-13.09,-12.6,-12.32
8.93,1.17,-3.57,-10.29,-10.29,-10.29
8.98,1.19,-3.56,-8.05,-7.14,-7.14
8.65,1.14,-3.44,-5.39,-4.41,-4.41
8.6,1.17,-3.35,-2.87,-2.59,-2.45
8.69,1.23,-3.39,-1.26,-1.19,-1.19
8.74,1.25,-3.4,0.28,0.28,0.42
8.76,1.16,-3.36,1.68,2.17,2.52
8.94,1.15,-3.42,4.34,4.69,4.69
9.01,1.16,-3.47,7,7,7
9.04,1.16,-3.49,9.73,9.73,9.73
8.95,1.2,-3.42,11.27,11.76,11.76
8.99,1.17,-3.46,13.09,13.09,13.58
9.08,1.22,-3.51,15.19,15.54,15.54
8.94,1.26,-3.43,18.06,18.34,18.34
9.07,1.27,-3.52,19.46,19.46,19.53
9.03,1.35,-3.51,20.02,20.16,20.16
8.97,1.42,-3.43,20.51,20.51,20.58
9.01,1.41,-3.46,20.93,21.14,21.14
9.01,1.47,-3.43,21.49,21.7,21.7
8.81,1.46,-3.3,22.54,22.54,22.68
8.71,1.52,-3.24,22.89,22.89,22.89
8.94,1.58,-3.35,21.91,21.91,21.77
8.96,1.58,-3.32,20.09,20.09,20.09
8.92,1.61,-3.26,19.39,19.04,19.04
8.99,1.64,-3.32,18.06,17.71,17.71
9.05,1.65,-3.37,16.52,16.52,16.03
9.05,1.67,-3.32,14.35,14.35,14.35
9.11,1.69,-3.29,12.18,11.83,11.83
9.04,1.71,-3.28,10.15,9.94,9.94
9.18,1.74,-3.3,8.82,8.19,8.19
9.16,1.67,-3.25,7.14,7.14,7.21
9.16,1.7,-3.28,6.44,6.44,6.44
9.21,1.68,-3.27,5.74,5.74,5.74
9.21,1.69,-3.26,5.11,5.11,5.11
9.18,1.66,-3.22,4.2,4.2,4.2
9.18,1.69,-3.18,3.08,3.08,3.08
9.15,1.67,-3.16,2.52,2.52,2.52
9.11,1.67,-3.12,1.96,1.82,1.82
9.09,1.63,-3.13,1.05,1.05,0.77
9.09,1.63,-3.18,-0.07,-0.07,-0.07
9.18,1.62,-3.19,-0.98,-0.98,-0.98
9.1,1.61,-3.19,-1.61,-1.89,-1.89
9.13,1.61,-3.2,-2.8,-2.8,-3.29
9.16,1.61,-3.27,-4.76,-4.76,-4.76
9.18,1.63,-3.25,-6.93,-6.93,-6.93
9.12,1.6,-3.23,-8.4,-8.4,-8.4
9.11,1.6,-3.21,-9.8,-9.8,-9.8
9.17,1.64,-3.28,-10.78,-10.78,-10.78
9.24,1.66,-3.34,-12.11,-12.11,-12.11
9.28,1.65,-3.33,-13.37,-13.44,-13.44
9.1,1.58,-3.26,-13.58,-13.65,-13.65
9,1.57,-3.25,-13.86,-13.86,-13.79
8.87,1.6,-3.22,-14.91,-14.91,-14.91
8.92,1.62,-3.23,-15.12,-15.12,-15.12
9.03,1.61,-3.27,-14.91,-14.91,-14.91
8.95,1.61,-3.21,-14.63,-14.63,-14.49
9,1.64,-3.23,-14.49,-14.49,-14.49
9.09,1.67,-3.3,-15.05,-15.05,-15.05
9.13,1.66,-3.28,-14.84,-14.84,-14.84
9.1,1.67,-3.26,-14.21,-14.21,-14.21
8.96,1.69,-3.26,-13.86,-13.72,-13.72
8.83,1.58,-3.17,-12.6,-12.6,-12.6
8.72,1.58,-3.09,-10.99,-10.99,-10.99
8.82,1.64,-3.14,-9.87,-9.87,-9.87
8.94,1.75,-3.09,-9.8,-9.8,-9.8
9.46,1.87,-2.97,-10.78,-10.78,-10.99
10.15,1.96,-2.69,-12.32,-12.32,-12.32
10.74,2.25,-2.45,-12.81,-12.95,-12.95
10.78,2.36,-2.2,-13.51,-13.51,-13.79
10.6,2.29,-1.93,-14.56,-14.56,-14.84
10.68,2.26,-1.52,-15.54,-15.54,-15.54
11.04,2.43,-0.89,-14.84,-14.84,-14.84
11.6,2.63,-0.63,-13.93,-13.79,-13.79
11.83,2.74,-0.39,-13.37,-13.37,-13.37
11.7,2.71,0.01,-13.16,-13.16,-13.09
11.21,2.66,0.34,-12.25,-11.9,-11.9
10.92,2.52,0.75,-10.5,-10.5,-10.5
10.64,2.45,1.18,-9.94,-10.01,-10.01
10.83,2.6,1.3,-10.71,-11.34,-11.34
11.29,2.56,1.29,-12.11,-12.11,-12.18
11.18,2.45,1.66,-11.41,-11.34,-10.85
11.61,2.69,1.99,-10.29,-10.01,-10.29
12.12,3.01,2.04,-11.34,-12.74,-12.74
12.69,3.33,2.33,-16.03,-18.41,-18.41
12.97,3.4,2.74,-22.89,-23.66,-24.36
13.24,3.36,3.13,-29.4,-30.66,-31.22
14.69,3.44,3.42,-33.11,-33.11,-33.6
13.69,3.58,3.8,-34.09,-34.09,-34.23
14.12,3.74,4.25,-35.42,-36.19,-36.47
14.89,3.81,4.64,-39.62,-39.62,-39.62
14.99,3.78,4.81,-42,-42.07,-42.07
14.91,3.85,4.88,-42.91,-42.98,-42.98
14.63,3.67,4.87,-44.52,-44.87,-44.87
13.97,3.54,5.12,-45.99,-45.99,-45.92
13.13,3.28,5.38,-45.85,-45.71,-45.71
12.47,2.87,5.69,-43.33,-43.33,-42.91
11.56,2.72,6.17,-38.99,-38.99,-38.99
10.68,2.93,7.69,-35.49,-35.49,-35.49
10.37,2.96,7.88,-36.75,-36.75,-36.75
9.37,2.6,7.93,-36.47,-36.47,-36.47
9.28,2.07,7.39,-36.05,-36.05,-36.05
8.35,1.7,7.18,-30.66,-30.66,-30.66
7.58,1.36,6.71,-27.72,-27.37,-27.37
6.63,0.98,6.19,-23.38,-23.38,-20.72
5.3,0.63,6.03,-15.05,-15.05,-13.72
3.92,0.49,6.06,-2.87,-2.87,-2.87
2.68,0.48,5.99,3.64,3.64,3.64
1.3,0.35,5.51,9.8,9.8,9.8
0.36,0.26,5.19,15.75,15.75,15.75
-0.13,0.3,4.58,22.05,22.05,22.05
-0.86,0.28,4.09,27.16,27.16,27.16
-1.38,0.34,3.4,33.39,33.39,33.39
-1.84,0.4,2.68,37.24,37.94,37.94
-2.23,0.66,1.45,41.51,41.51,41.72
-2.7,0.74,0.81,42.07,41.86,41.86
-2.87,0.68,0.01,40.25,40.25,40.25
-2.71,0.67,-0.44,38.29,38.29,38.01
-2.74,0.6,-1.28,34.65,34.65,34.65
-2.9,0.27,-2.04,31.01,31.01,31.01
-3,-0.04,-2.52,27.79,26.53,26.53
-3.26,-0.22,-3.35,22.33,21.84,21.84
-3.79,-0.44,-4.25,17.78,17.78,17.29
-4.59,-0.78,-4.62,15.75,15.47,15.47
-4.91,-1.04,-5.6,16.17,16.45,16.45
-5.32,-1.34,-7.05,20.44,20.44,21.14
-5.37,-1.49,-9.22,28.98,28.98,29.75
-5.13,-1.45,-10.09,31.92,31.92,32.34
-5.36,-0.69,-11.71,33.81,33.53,33.53
-3.65,-0.27,-12.06,-10.5,-10.5,-10.5
-1.98,-0.46,-11.83,-35.7,-35.7,-35.7
-1.63,-0.21,-11.32,-47.88,-47.88,-47.88
-3.15,-0.55,-9.38,-65.24,-65.24,-65.45
-3,-1.01,-8.68,-62.3,-61.46,-61.46
-2.95,-0.89,-8.24,-52.85,-52.85,-51.94
-2.88,-0.73,-8.07,-46.9,-46.9,-46.06
-2.46,-0.78,-8.45,-35.91,-35.91,-35.91
-2.26,-0.95,-8.97,-26.11,-26.11,-26.11
-2.13,-0.98,-9.83,-9.73,-9.73,-9.73
-2.6,-0.67,-10.38,1.05,1.05,1.05
-2.99,-0.21,-10.6,8.26,8.26,8.26
-3.41,-0.17,-10.54,15.75,16.73,16.73
-3.5,-0.22,-10.38,22.33,25.97,25.97
-3.87,-0.46,-10.41,31.78,35.42,35.42
-4.33,-0.87,-10.34,43.61,43.61,43.61
-3.88,-0.87,-10.34,52.99,53.76,53.76
-3.28,-0.75,-10.4,56.21,57.54,57.54
-2.04,-0.35,-9.34,61.25,61.25,60.69
-2.45,-0.05,-9.36,55.23,54.18,54.18
-3,-0.27,-9.35,48.51,47.81,47.81
-2.67,-0.16,-9.45,41.93,41.93,41.16
-2.14,0.11,-9.6,35.42,32.69,31.22
-2.04,0.15,-9.56,23.8,23.8,19.81
-1.87,-0.14,-9.33,12.39,12.39,12.39
-2.13,-0.72,-9.25,7.49,6.79,6.79
-2.55,-1.12,-9.23,5.53,5.53,5.32
-2.89,-1.28,-9.17,4.34,4.34,4.34
-2.91,-1.17,-9.09,1.82,1.82,1.82
-2.58,-0.91,-9.14,-1.47,-2.17,-2.17
-2.17,-0.89,-9.05,-7.28,-7.28,-7.91
-1.55,-1.27,-9.03,-13.3,-13.3,-13.58
-1.37,-1.64,-9.05,-14.63,-14.63,-14.63
-1.92,-2.16,-9.06,-12.39,-11.9,-11.9
-2.58,-2.41,-9.12,-7.07,-7.07,-6.37
-3,-2.35,-9.21,-3.01,-1.54,-1.54
-2.78,-2.1,-9.32,3.22,3.22,3.22
-2.26,-1.92,-9.49,6.3,6.3,6.3
-1.7,-1.91,-9.53,8.96,8.96,8.96
-1.7,-1.87,-9.58,11.9,12.18,12.18
-1.9,-1.9,-9.64,14.42,14.7,15.47
-2.12,-1.92,-9.66,17.29,17.78,18.69
-2.45,-2.05,-9.58,22.61,22.61,23.17
-2.58,-2.17,-9.59,28.84,28.84,28.84
-2.71,-2.36,-9.66,32.83,33.95,33.95
-2.46,-2.22,-10,36.19,36.19,36.26
-2.25,-1.92,-10.3,28.49,28.49,28.49
-2.29,-1.76,-10.1,19.04,19.04,19.04
-2.57,-1.52,-9.9,11.55,10.29,10.29
-2.83,-1.23,-9.52,-0.42,-0.42,-4.55
-2.76,-1.27,-9.44,-10.71,-10.71,-11.76
-2.39,-2.37,-9.1,-13.79,-13.79,-13.65
-2.16,-2.53,-8.98,-11.27,-11.27,-11.27
-2.08,-2.48,-8.94,-7.21,-6.65,-6.65
-1.91,-2.14,-9.37,-5.39,-5.39,-5.39
-2.03,-1.9,-9.77,-6.51,-6.93,-6.93
-2.39,-2.08,-9.93,-8.82,-8.82,-8.82
-3.1,-2.21,-9.95,-7.77,-7.77,-7.77
-3.58,-2.31,-10.54,-6.3,-6.23,-6.23
-3.64,-2.43,-12.17,-10.36,-10.99,-10.99
-4,-2.43,-13.24,-18.34,-19.6,-19.6
-4.54,-2.71,-13.17,-25.48,-26.18,-26.18
-5.19,-3.27,-12.49,-25.27,-25.27,-25.27
-5.88,-3.8,-12.24,-17.64,-17.64,-17.64
-5.79,-3.57,-12.43,-8.12,-7.14,-7.14
-5.46,-3.36,-12.14,-1.05,-1.05,-0.07
-5.19,-2.77,-11.63,6.16,6.16,6.79
-4.99,-2.21,-11.01,9.52,9.52,9.52
-4.55,-1.53,-10.57,6.3,6.3,6.3
-4.24,-1.2,-10.19,3.36,3.36,3.36
-4.27,-0.66,-9.82,-1.33,-1.33,-1.33
-4.92,-0.07,-9.69,-8.47,-9.8,-9.8
-6.22,-0.25,-9.29,-18.34,-18.34,-18.97
-7.42,-1,-8.48,-17.99,-17.99,-17.22
-8.09,-1.17,-7.98,-12.46,-12.46,-12.46
-7.94,-1.2,-7.45,-7.7,-7.7,-7.7
-7.78,-1.35,-7.11,-5.11,-5.25,-5.25
-6.8,-0.93,-6.75,-8.54,-9.66,-9.66
-5.94,-0.6,-5.86,-21,-21,-21
-6.03,-0.53,-4.94,-38.29,-38.29,-38.29
-6.88,-0.85,-4.26,-47.11,-47.11,-48.3
-7.12,-1.23,-3.46,-54.04,-54.39,-54.39
-6.72,-1.6,-2.44,-52.22,-51.66,-51.66
-6.84,-1.6,-1.45,-46.76,-46.76,-46.41
-6.96,-1.3,-0.96,-43.89,-43.89,-43.61
-7.06,-1.14,-0.51,-41.51,-41.51,-41.16
-7,-1.14,-0.06,-37.59,-36.89,-36.89
-6.44,-0.97,0.58,-30.17,-30.17,-29.26
-6.66,-0.9,1.45,-23.03,-23.03,-21.91
-7.24,-0.95,2,-16.17,-16.17,-14.91
-7.09,-0.86,2.87,-1.89,-1.89,-0.42
-6.54,-0.65,3.41,7.56,7.56,7.56
-5.88,-0.24,4.21,17.22,18.13,18.13
-4.92,0.32,4.84,21.7,22.82,22.82
-4.13,0.56,5.65,23.24,23.17,23.1
-3.79,0.71,6.15,22.61,22.33,22.33
-3.68,0.63,6.86,22.96,22.96,22.96
-2.91,0.16,7.52,26.67,26.67,26.67
-1.95,-0.17,8.04,30.24,30.24,30.24
-1.36,-0.18,8.46,33.88,33.88,33.88
-0.51,-0.2,8.79,36.96,36.96,36.96
-1.58,-0.83,9.68,47.53,49.28,49.28
-2.31,-0.73,9.87,57.68,60.48,61.53
-2.35,0.17,10.01,65.31,65.31,65.31
-1.22,1.07,10.09,62.58,61.88,60.55
-1.09,1.44,10.41,56.63,55.79,53.83
-0.48,1.67,10.87,48.72,47.6,45.29
-0.12,2.28,11.19,36.26,36.26,34.65
-0.09,2.24,11.56,19.32,19.32,19.32
-0.54,1.75,11.84,10.5,10.5,10.5
-0.69,1.58,11.94,4.48,2.17,2.17
-0.45,1.42,12.09,-1.61,-3.08,-3.71
-0.14,1.18,11.88,-6.79,-7.42,-7.84
0.08,0.67,11.76,-11.13,-11.13,-11.27
-0.31,0.46,11.93,-11.41,-11.41,-11.06
-0.12,0.46,11.73,-9.17,-9.17,-8.82
-0.28,0.25,11.87,-6.65,-5.88,-5.32
-0.18,0.24,11.7,-3.08,-2.31,-1.82
0.3,0.45,11.46,-0.21,-0.21,-0.07
0.38,0.94,11.33,-1.12,-1.12,-1.61
0.28,1.21,11.11,-7.63,-7.63,-8.33
0.01,1.05,11.07,-11.48,-11.83,-11.83
0.24,0.91,10.71,-13.65,-13.93,-13.79
0.44,0.92,10.2,-13.65,-13.65,-13.44
0.15,0.89,10.04,-13.58,-13.58,-13.58
0.06,1.25,8.83,-19.32,-19.32,-19.32
-0.71,0.99,8.07,-21.42,-21.42,-21.42
-1.71,0.28,7.91,-19.88,-18.41,-18.41
-2.13,-0.07,7.56,-12.6,-10.57,-10.57
-2.77,-0.22,7.14,-5.81,-5.81,-4.55
-3.28,-0.2,6.59,-2.03,-2.03,-2.03
-3.8,0.03,5.74,0.35,0.35,0.35
-4.47,0.21,4.97,-0.63,-0.63,-0.63
-5.73,0.07,4.35,-3.85,-3.85,-3.85
-6.8,-0.09,3.46,-6.23,-6.23,-6.3
-7.55,-0.26,2.35,-7.7,-7.7,-7.7
-8.28,-0.74,1.81,-8.33,-8.47,-8.47
-8.98,-1,0.94,-8.12,-8.12,-8.12
-10.04,-0.71,0.06,-9.87,-9.87,-10.92
-10.59,-0.43,-0.54,-15.68,-15.68,-17.64
-10.72,-0.31,-1.54,-23.31,-23.31,-25.06
-10.66,-0.78,-2.21,-29.89,-29.89,-30.38
-10.74,-1.18,-2.63,-33.95,-33.95,-33.95
-11.27,-1.08,-2.78,-35.84,-35.84,-35.84
-11.18,-1.05,-3.5,-39.48,-39.48,-39.48
-10.3,-1.53,-3.9,-40.88,-40.88,-40.6
-9.82,-1.58,-4.14,-37.59,-37.59,-36.12
-9.94,-1.58,-4.32,-30.31,-30.31,-29.54
-10.05,-1.45,-4.68,-21.77,-21.77,-20.93
-9.04,-1.05,-5.13,-18.97,-18.97,-18.55
-7.93,-0.9,-5.48,-17.85,-17.85,-17.85
-7.58,-1.02,-5.74,-16.24,-16.24,-16.24
-7.33,-1.81,-6.65,-7,-7,-7
-6.97,-1.71,-7.23,-2.24,-0.7,-0.7
-6.58,-1.48,-7.8,3.92,3.92,5.32
-5.89,-1.63,-8.35,9.94,9.94,9.94
-5.17,-1.68,-8.75,14.56,16.87,16.87
-5.03,-1.21,-9.35,21,21.84,23.24
-6.35,1.13,-10.66,26.46,26.46,26.53
-6.94,2.09,-10.45,26.32,26.32,26.32
-6.26,1.16,-9.48,25.48,24.78,24.78
-6.4,0.63,-8.93,22.68,21.98,21.98
-6.41,0.6,-8.86,19.39,19.39,19.39
-5.69,1.25,-8.79,8.96,8.96,6.86
-4.92,1.65,-8.71,-1.4,-2.73,-2.73
-3.51,0.99,-8.26,-21.77,-22.54,-22.54
-3.08,0.48,-8.45,-25.27,-26.18,-26.18
-2.7,0.06,-8.73,-26.53,-26.6,-26.32
-2.69,-1.25,-8.87,-18.41,-17.29,-17.29
-2.94,-2.26,-10.08,-1.47,-1.47,-1.47
-3.43,-2.22,-10.86,11.48,12.67,12.67
-4.47,-2.06,-11.01,25.62,25.62,25.62
-4.53,-1.65,-10.93,32.06,32.34,32.34
-4.53,-1.24,-10.98,31.08,30.31,30.31
-4.11,-0.69,-11.16,24.64,24.64,24.64
-3.91,-0.56,-10.78,17.85,17.15,17.15
-4.08,-0.74,-10.08,13.93,13.79,13.79
-4.24,-1.05,-9.4,13.93,13.93,13.93
-4.03,-1.33,-8.69,17.64,18.27,18.27
-3.56,-1.25,-8.34,22.47,23.03,23.03
-3.17,-0.91,-8.14,25.41,25.41,25.41
-2.95,-0.34,-7.93,23.87,23.38,23.38
-2.98,0,-8,19.6,19.6,18.76
-3.21,0.01,-8.59,11.62,10.71,10.71
-3.48,0.13,-9.85,0.07,0.07,-1.12
-3.91,0.04,-10.56,-7.84,-7.84,-9.17
-4.44,-0.16,-11.13,-17.57,-35.49,-18.62
-5.38,-0.98,-11.23,-23.24,-23.24,-23.38
-5.85,-2.12,-12.22,-21,-21,-21
-6.16,-3.51,-13.74,-13.3,-13.3,-13.3
-6.7,-4.43,-14.02,-2.59,-0.63,-0.63
-7.27,-4.39,-12.77,18.13,18.13,18.13
-7.51,-4.06,-11.51,31.71,31.71,33.04
-7.34,-3.59,-10.85,37.52,38.71,38.92
-6.5,-2.92,-10.1,38.57,38.57,36.54
-5.28,-2.12,-9.69,29.4,29.4,27.44
-4.2,-1.74,-9.36,4.62,4.62,1.54
-3.76,-1.53,-8.8,-20.09,-20.09,-23.31
-4.27,-1.41,-8.42,-38.36,-43.96,-46.55
-5.35,-1.27,-8.32,-59.22,-63.77,-66.15
-6.55,-1.54,-8.27,-75.46,-75.46,-79.24
-7.75,-2.19,-7.53,-80.5,-80.5,-80.5
-8.51,-2.71,-6.87,-67.55,-67.55,-67.55
-9.49,-2.61,-6.05,-54.18,-52.22,-52.22
-9.84,-2.15,-5.66,-39.13,-39.13,-39.13
-9.56,-1.86,-5.48,-31.36,-28.91,-28.91
-8.89,-1.3,-4.55,-21.28,-21.28,-20.23
-8.16,-0.9,-3.96,-13.79,-13.79,-13.79
-7.71,-0.15,-3.49,-12.11,-12.6,-12.6
-6.94,0.67,-2.24,-16.1,-16.1,-16.73
-6.77,0.92,-0.95,-21,-21,-21
-7.38,0.49,-0.18,-20.16,-19.18,-19.18
-7.94,0,0.64,-14.56,-14.56,-13.79
-7.96,-0.01,1.29,-7.21,-7.21,-7.21
-7.85,0.03,1.66,-4.41,-3.78,-3.78
-7.49,0.46,2.18,-3.57,-4.27,-4.27
-6.74,1.21,2.52,-9.17,-9.17,-11.55
-6.28,1.14,3.04,-18.69,-18.69,-20.65
-6.16,0.7,3.53,-24.08,-24.08,-25.06
-6.28,0.62,4.06,-27.16,-27.16,-27.16
-5.4,-0.28,5.32,-25.83,-25.34,-25.34
-5.25,-0.52,5.62,-20.44,-20.44,-20.23
-4.99,-0.35,5.81,-19.46,-19.39,-19.46
-5.03,-0.65,6.23,-17.43,-16.24,-15.33
-4.53,-0.66,6.96,-9.94,-9.94,-8.82
-4.29,-0.62,7.61,-0.84,-0.84,-0.84
-4.79,-0.42,7.61,3.78,4.27,4.27
-4.77,-0.17,7.73,7.07,7.07,7.49
-5.22,-0.06,7.96,9.73,10.71,11.2
-4.61,0.13,8.51,13.79,13.79,13.79
-4.06,0.02,8.71,16.94,16.94,16.87
-2.8,0.56,8.17,16.45,16.45,16.45
-2.39,0.58,9,16.66,16.66,16.66
-2.22,0.71,9.26,17.15,17.08,17.08
-1.61,0.92,9.76,14.77,14.21,14.21
-1.65,1.07,10.11,8.68,6.86,5.95
-1.96,0.93,10.77,1.54,1.54,-0.77
-2.44,0.71,11.44,-3.92,-3.92,-3.92
-2.54,1.09,11.89,-5.81,-5.81,-5.81
-2.36,1.08,12.33,-8.61,-8.61,-8.61
-1.69,0.62,12.46,-12.74,-12.74,-12.95
-1.17,0.42,12.37,-15.75,-15.75,-15.75
-1.31,0.05,12.26,-19.81,-19.95,-19.95
-1.96,-0.56,12.09,-19.67,-19.39,-19.39
-2.51,-0.94,11.66,-14.77,-14.77,-14.14
-2.52,-0.7,11.24,-10.01,-10.01,-9.52
-2.14,-0.68,11.17,-6.58,-6.58,-6.23
-1.46,-0.4,11.15,-4.62,-4.62,-4.48
-1.03,-0.16,10.76,-3.43,-3.43,-3.15
-1.28,0.22,10.22,-1.26,-1.26,-0.98
-1.71,0.46,9.77,-1.47,-1.47,-1.47
-1.79,0.35,9.22,-3.85,-3.85,-3.85
-1.63,0.13,8.51,-1.4,-1.4,-1.4
-2.74,-0.43,7.76,2.94,3.15,3.15
-3.1,-1,7.42,5.53,6.09,6.09
-3.85,-1.17,6.87,11.41,11.41,12.53
-4.86,-1.03,6.21,18.13,18.13,18.69
-5.01,-0.68,5.72,19.74,19.74,19.81
-4.89,-0.09,5.2,18.9,18.48,18.06
-5.7,-0.13,4.57,15.68,15.68,14.07
-6.44,-0.53,4.2,10.78,10.78,10.29
-6.48,-0.73,3.58,5.88,5.88,5.46
-6.85,-0.77,3.15,3.01,3.01,2.73
-7.56,-1.03,2.93,2.31,2.31,2.52
-7.57,-0.77,1.72,6.16,6.44,6.44
-7.8,-0.18,0.78,6.79,6.79,6.79
-8.25,-0.34,-0.1,5.46,5.46,5.46
-8.64,-0.56,-0.43,4.83,4.55,4.55
-9.09,-0.51,-1.04,3.57,3.57,3.22
-9.48,-0.23,-1.93,1.82,1.82,1.82
-9.57,-0.05,-2.79,1.54,1.54,1.68
-9.56,0.19,-3.39,2.66,2.87,2.87
-9.57,0.23,-4.63,2.38,2.38,2.31
-9.29,0.31,-5.37,1.61,1.61,1.54
-9.34,0.11,-6.04,4.48,4.48,4.48
-9.88,-0.31,-6.36,9.94,9.94,9.94
-9.97,-0.53,-7,21.28,21.28,21.28
-9.83,-0.48,-7.66,28.63,28.63,28.63
-10.08,-0.26,-8.18,36.61,37.8,37.8
-10.32,-0.73,-8.16,42.56,43.4,45.43
-9.69,-1.04,-8.55,51.1,51.1,51.8
-8.65,-1.3,-8.96,57.68,57.68,58.45
-7.9,-1.63,-9.22,64.68,64.68,64.68
-6.49,-2.53,-9.54,91.21,91.21,96.32
-5.82,-1.79,-9.75,109.2,109.2,94.29
-9.58,-2.88,-7.79,18.06,18.06,18.06
-8.49,-1.48,-8.19,43.05,43.05,43.05
-6.85,-1.57,-7.08,77.77,77.77,77.77
-8.63,-2.09,-7.8,96.18,96.18,96.18
-8.44,0.33,-7.62,95.76,97.65,97.65
-7.96,0.89,-7.61,98.21,98.21,97.37
-6.75,1.74,-7.7,89.88,89.88,89.88
-6.03,2.71,-7.61,59.57,59.57,59.57
-5.91,2.67,-7.15,31.43,27.51,27.51
-5.72,2.25,-6.95,8.33,-2.31,-2.31
-5.55,1.4,-7.08,-22.19,-22.19,-25.34
-5.52,0.42,-7.15,-46.41,-48.37,-48.37
-5.79,-0.83,-7.13,-55.72,-57.75,-57.75
-5.92,-2.17,-7.43,-57.75,-57.26,-56.7
-5.97,-3.08,-7.94,-47.46,-45.92,-45.92
-5.78,-3.46,-8.21,-36.89,-30.94,-30.94
-5.45,-3.54,-8.44,-20.65,-14.42,-14.42
-4.71,-3.23,-8.91,-2.8,-0.98,-0.98
-4.28,-2.79,-9.31,11.06,11.06,12.11
-4.37,-2.07,-9.26,15.96,16.94,17.29
-4.88,-1.79,-9.23,17.78,17.78,17.78
-5.22,-1.96,-9.29,17.29,17.29,17.43
-5.53,-1.8,-9.27,17.43,17.43,17.43
-5.74,-1.39,-9.2,16.45,16.45,16.17
-6.13,-1.51,-8.87,13.51,13.51,13.23
-5.71,-1.46,-9.16,12.25,12.25,11.97
-5.31,-1.48,-9.56,12.04,12.04,12.04
-5.18,-1.24,-9.91,6.44,6.44,6.44
-5.13,-1.12,-9.98,1.4,1.4,-0.21
-5.1,-1.16,-10.07,-6.23,-6.23,-6.23
-5.19,-1.99,-10.47,-13.51,-13.37,-13.37
-5.36,-2.55,-10.08,-11.83,-10.29,-10.29
-5.59,-3.12,-9.76,-5.46,-5.46,-5.46
-5.58,-3.46,-10.25,1.82,1.82,1.82
-5.64,-3.33,-10.41,4.76,5.53,5.53
-5.9,-3.05,-10.27,6.3,6.3,6.09
-5.92,-2.94,-9.78,3.78,3.29,3.29
-5.89,-2.91,-9.28,-0.28,-0.91,-0.91
-6.09,-2.63,-8.69,-6.16,-7.07,-7.07
-6.55,-2.19,-8.31,-11.97,-12.95,-12.95
-6.66,-1.75,-8.58,-23.52,-24.85,-24.85
-6.67,-1.58,-8.61,-34.16,-35.42,-35.42
-6.66,-1.45,-8.16,-41.51,-42.63,-44.73
-6.94,-1.52,-7.74,-51.87,-51.87,-52.71
-7.44,-1.75,-7.31,-56.98,-56.98,-56.98
-7.92,-1.97,-6.94,-55.3,-54.74,-54.74
-8.18,-1.87,-6.34,-46.9,-46.9,-45.57
-8.66,-1.64,-5.82,-40.11,-38.01,-36.82
-8.6,-1.18,-5.4,-31.71,-31.71,-28.98
-8.48,-0.81,-4.9,-25.06,-25.06,-24.43
-8.11,-0.28,-4.28,-19.46,-19.46,-19.25
-8.07,0.34,-4.05,-18.62,-18.62,-18.83
-8.33,0.45,-3.68,-21.56,-21.56,-21.91
-8.64,0.46,-3.21,-22.19,-21.63,-21.35
-8.64,0.53,-2.57,-20.16,-20.16,-19.95
-8.87,1.08,-1.26,-26.74,-26.74,-26.95
-9.14,0.88,-0.77,-27.79,-27.79,-27.58
-8.87,0.73,-0.33,-25.9,-25.48,-25.48
-8.27,1.32,-0.11,-26.39,-26.67,-26.67
-8.52,0.99,1.06,-34.02,-34.02,-34.02
-8.33,1.16,1.48,-34.65,-34.65,-34.65
-8.14,1.35,1.62,-41.51,-41.51,-41.51
-8.1,1.23,1.86,-48.37,-48.37,-48.37
-7.99,0.96,2.03,-50.68,-50.89,-50.89
-8.32,0.56,2.36,-49.14,-49.14,-49.14
-8.48,0.46,2.67,-45.36,-45.36,-45.36
-8.71,0.7,2.7,-43.54,-43.26,-43.26
-9.28,0.25,3.16,-40.67,-39.9,-39.9
-9.29,-0.34,3.57,-27.65,-27.65,-26.11
-9.15,-0.2,3.82,-17.29,-17.29,-16.24
-8.49,0.34,4.01,-11.83,-11.83,-11.83
-8.21,0.6,4.42,-11.9,-11.9,-12.11
-8.41,0.5,4.9,-11.06,-11.06,-11.06
-8.37,0.29,5.28,-5.53,-5.53,-5.53
-7.72,0.45,5.22,-3.08,-3.08,-3.08
-7.38,0.6,5.38,-3.36,-3.57,-3.57
-7.15,0.94,5.77,-5.88,-5.88,-6.23
-6.92,1.32,6.01,-8.96,-8.96,-11.06
-7.3,1.26,6.12,-13.79,-13.79,-14.21
-7.86,0.75,6.45,-15.89,-15.89,-15.82
-7.73,0.73,6.73,-14.63,-14.63,-14.42
-7.28,0.89,6.81,-14.84,-14.84,-14.84
-6.66,0.99,6.91,-16.17,-16.73,-16.73
-5.99,0.92,7.01,-18.41,-18.41,-18.41
-6.31,0.5,7.21,-17.15,-17.15,-17.15
-6.7,0.6,7.38,-12.46,-12.46,-12.46
-6.93,0.54,7.5,-7.63,-7.63,-7.63
-6.45,0.54,7.32,-2.45,-2.45,-2.45
-5.56,0.34,7.44,-0.35,0.14,0.14
-3.98,0.37,7.83,0.7,0.7,0.84
-3.07,0.52,8.35,0.49,0.49,0.42
-2.46,0.45,9.07,-0.28,-0.28,-0.35
-2.17,0.36,9.7,-0.56,-0.56,-0.63
-1.96,0.12,10.01,-1.96,-1.96,-1.96
-1.5,0.24,10.15,-4.27,-5.25,-5.25
-1.75,0.24,10.32,-10.29,-12.11,-12.11
-2.12,-0.03,10.55,-16.38,-16.8,-16.8
-2.81,-0.57,10.66,-16.52,-16.52,-16.24
-3.69,-0.91,10.49,-14.56,-14.56,-14.35
-3.78,-0.94,10.22,-13.3,-13.3,-13.3
-2.9,-0.81,9.92,-12.88,-12.88,-12.88
-2.53,-1.06,9.64,-10.01,-10.01,-10.01
-2.15,-1.14,9.63,-6.86,-6.86,-6.86
-2.09,-1.18,9.62,-3.85,-3.85,-3.5
-1.92,-1.3,9.25,-0.07,0.7,0.7
-2.31,-1.65,8.76,8.54,8.54,9.73
-2.78,-1.19,8.37,15.19,15.96,15.96
-3.2,-0.47,7.8,20.79,20.79,21
-4.19,-0.24,7.4,21.56,21.56,21.7
-5.47,-0.3,7.16,21.42,21.42,21.28
-6.43,-0.22,6.84,20.72,20.72,20.72
-6.92,-0.26,6.7,21.63,21.63,21.63
-7.06,0.08,6.18,20.09,19.46,19.46
-7.05,0.16,5.79,15.26,15.26,14.49
-7.31,-0.17,5.58,9.17,9.17,9.17
-7.11,-0.33,5.4,7.91,7.56,7.56
-6.87,-0.35,4.76,6.93,6.93,6.58
-6.97,-0.34,3.35,2.03,2.03,1.47
-6.95,-0.8,2.54,1.89,1.89,1.89
-7.63,-1.66,2.01,8.12,8.12,8.12
-8.07,-1.8,1.51,20.58,20.58,20.58
-8.01,-1.53,0.77,26.53,26.53,26.53
-8.02,-1.53,-0.3,31.43,32.13,32.13
-8.58,-1.96,-0.96,36.19,36.19,36.19
-9.01,-1.71,-1.59,40.11,40.11,40.11
-8.94,-1.31,-2.01,39.76,39.2,39.2
-8.87,-1.23,-2.82,37.59,37.59,37.52
-9.31,-1.5,-3.7,38.5,38.5,38.5
-9.39,-1.12,-4.78,39.48,39.48,39.48
-9.12,-1,-5.27,36.68,35.42,35.42
-8.88,-1.14,-6.05,31.57,30.94,29.75
-9.08,-1.79,-6.8,28.63,28.77,28.77
-9.53,-2.4,-7.02,31.92,32.69,32.69
-9.82,-2.29,-7.04,37.66,37.66,37.66
-9.67,-2.04,-7.3,39.69,39.62,39.62
-9.4,-2.06,-7.31,38.43,37.59,37.59
-8.12,-2.69,-7.7,35.98,35.98,35.98
-8.14,-2.97,-7.6,37.73,37.73,37.73
-8.33,-3.05,-7.49,40.46,40.67,40.67
-8.33,-3.18,-7.49,41.72,42.14,42.14
-7.69,-3.2,-7.42,41.79,41.51,41.51
-6.97,-3.2,-7.03,37.24,37.24,36.75
-6.12,-3.41,-6.71,34.23,34.23,34.23
-6,-4.02,-6.32,32.06,32.06,32.06
-5.77,-4.19,-6.37,32.55,32.55,32.55
-5.73,-4.18,-6.45,30.73,30.73,30.73
-5.47,-3.91,-6.62,24.29,24.29,24.29
-5.27,-3.73,-6.63,16.17,16.17,16.17
-5.46,-3.94,-6.42,6.3,6.3,6.3
-5.56,-4.16,-6.37,-0.35,-1.19,-1.19
-5.75,-4.07,-6.81,-8.47,-9.52,-9.52
-5.26,-4.1,-7.24,-17.43,-17.43,-17.43
-4.81,-4.42,-7.48,-24.92,-24.92,-24.92
-4.19,-4.67,-8.4,-32.9,-33.74,-33.74
-3.93,-5.02,-8.94,-38.64,-39.48,-39.48
-3.81,-4.76,-10.05,-56.42,-58.52,-59.57
-3.92,-5.25,-9.78,-64.12,-64.12,-64.12
-3.95,-5.83,-9.31,-60.9,-60.9,-60.9
-3.91,-6.41,-8.98,-52.85,-49.14,-49.14
-3.93,-6.76,-8.21,-34.3,-34.3,-31.99
-3.56,-6.48,-8,-13.09,-13.09,-13.09
-2.87,-5.92,-7.93,-2.87,-1.4,-1.4
-2.39,-5.25,-7.98,6.44,7.21,7.21
-2.08,-4.57,-8.05,9.45,9.45,9.24
-2.1,-3.98,-8.08,6.72,5.18,4.2
-2.31,-3.63,-7.96,-0.49,-0.49,-3.57
-2.56,-3.61,-8.19,-8.61,-8.61,-11.48
-2.87,-3.84,-8.76,-17.85,-17.85,-17.85
-3.21,-4.24,-9.06,-23.52,-24.57,-24.57
-3.51,-4.38,-9.53,-26.81,-26.81,-27.44
-4.17,-4.7,-9.92,-28.49,-28.49,-28.56
-4.69,-4.66,-10.03,-26.88,-26.88,-26.53
-5.01,-4.85,-10.27,-23.59,-23.59,-23.17
-5.11,-4.99,-10.6,-21.42,-21,-21
-5.09,-4.71,-10.22,-16.73,-16.73,-16.24
-5.18,-4.53,-9.67,-13.51,-12.53,-12.04
-4.89,-3.97,-9.45,-10.92,-11.13,-11.13
-4.75,-3.24,-9.69,-27.79,-30.8,-31.99
-4.86,-3.66,-9.23,-36.61,-36.61,-36.61
-5.18,-3.88,-8.8,-35.07,-35.07,-35.07
-6.21,-3.57,-8.31,-35.14,-35.14,-35.14
-6.81,-3.23,-7.9,-36.47,-36.68,-36.89
-6.92,-3.35,-8.04,-36.33,-36.12,-36.12
-6.42,-3.28,-9.17,-34.02,-33.88,-33.88
-6.47,-3.13,-9.45,-32.76,-32.27,-32.27
-7.63,-3.03,-9.14,-30.38,-29.75,-28.35
-8.82,-2.3,-7.31,-16.66,-15.82,-15.82
-8.4,-1.56,-6.63,-13.02,-13.02,-13.02
-7.87,-0.9,-6.16,-15.89,-16.52,-16.52
-7.09,-0.12,-6.01,-22.75,-24.43,-28.28
-5.9,0.67,-5.62,-40.53,-43.12,-43.12
-5.76,0.82,-4.71,-68.88,-68.88,-71.68
-6.08,0.68,-4.04,-87.5,-87.5,-89.25
-6.19,0.36,-3.51,-99.96,-99.96,-101.36
-7.18,0.21,-3.57,-108.71,-108.71,-108.71
-8.99,-0.21,-3.41,-115.36,-115.36,-115.3
-9.92,-0.76,-3.13,-112.49,-112.49,-111.4
-9.81,-0.89,-2.8,-104.09,-104.09,-104
-9.69,-0.56,-2.64,-96.18,-96.18,-94.71
-9.6,-0.19,-2.19,-90.16,-90.16,-88.62
-9.6,0.12,-1.72,-83.09,-83.09,-81.34
-9.34,0.42,-1.1,-75.25,-75.25,-75.25
-9.19,0.4,-0.44,-65.38,-65.38,-63.91
-9.1,0.3,0.28,-50.96,-50.96,-50.96
-9.57,0.37,0.61,-42,-39.27,-39.27
-9.65,0.6,0.89,-31.43,-31.43,-29.19
-9.71,0.89,1.11,-22.12,-22.12,-22.12
-9.48,1.29,1.26,-18.06,-17.78,-17.78
-9.23,1.06,1.53,-17.15,-17.15,-16.73
-8.76,0.75,1.84,-14.84,-14.84,-14.84
-8.91,0.81,2.07,-15.47,-15.47,-16.31
-9.49,0.86,2.73,-21.35,-22.54,-22.54
-8.98,1.14,2.81,-35.28,-35.28,-37.1
-8.43,0.68,2.79,-47.67,-47.67,-49
-8.72,-0.54,3.1,-56.98,-56.98,-57.33
-8.74,-0.76,3.43,-59.08,-59.43,-59.43
-7.89,-0.71,3.57,-63.91,-63.91,-64.47
-7.96,-1.07,3.89,-65.87,-65.87,-65.8
-8.42,-1.29,4.36,-63.77,-63.77,-63.42
-3.46,-3.16,5.27,-36.47,-36.47,-34.93
-3.74,-3.43,5.49,-25.97,-25.97,-23.17
-3.62,-3.31,6.06,-19.6,-19.6,-19.04
-3.02,-3.18,6.52,-14.56,-14.56,-14.14
-3.52,-3.35,6.96,-10.15,-10.15,-9.45
-3.48,-3.63,6.94,-6.93,-6.93,-6.58
-3.06,-3.94,7.1,-3.78,-3.78,-3.78
-2.66,-4.13,7.56,-0.49,-0.49,-0.49
-3,-4.33,8.04,3.01,3.01,3.01
-3.18,-4.38,8.05,5.67,5.67,5.67
-3.04,-4.56,8.12,10.08,10.08,10.08
-1.56,-4.77,9.47,14.21,14.21,14.28
0.39,-5,10.38,15.54,15.54,15.54
1.32,-5.28,10.82,17.99,17.99,17.99
1.52,-5.28,11.13,19.67,20.16,20.16
-0.77,-5.81,11.22,35.42,36.4,36.4
-1.23,-5.71,10.47,42.91,42.91,43.05
-0.56,-5,10.12,41.09,41.09,40.6
0.25,-5.34,10.06,40.53,40.53,40.53
-0.04,-5.31,9.49,43.75,44.03,44.03
-1.12,-4.97,9.21,42.42,42.42,41.72
-1.7,-4.58,9.02,40.53,40.53,40.53
-1.56,-4.02,8.4,43.47,43.4,43.4
-1.5,-3.2,8.03,41.16,40.53,40.53
-1.5,-2.54,7.68,36.68,36.19,36.19
-2.03,-2.37,7.25,33.04,33.04,33.11
-3.04,-2.32,6.96,34.79,35.98,36.68
-4.66,-2.63,6.8,41.86,41.86,46.62
-5.29,-2.63,6.39,56.42,56.42,58.45
-5.71,-2.22,5.61,75.46,75.46,76.93
-5.86,-1.95,5.13,85.05,87.78,88.97
-5.75,-1.19,4.12,95.62,96.39,96.39
-6.56,-0.66,3.35,101.92,101.92,102.13
-8.02,-0.53,2.96,104.65,104.65,105.21
-8.72,-0.5,2.22,109.62,109.62,109.62
-9.01,-0.23,1.76,110.74,110.74,110.74
-9.39,0.13,1.45,108.78,108.78,107.66
-9.82,0.73,0.98,102.27,102.27,102.27
-10.58,1.62,0.78,89.46,89.46,87.36
-10.98,2.08,0.51,70.07,64.82,64.82
-10.96,1.87,0.03,46.83,46.83,44.38
-11.68,1.53,-0.32,26.81,26.81,26.81
-12.45,0.74,-0.69,17.92,17.92,0
-12.52,0.23,-0.92,14.56,14.56,14.56
-12.51,0.01,-1.04,14.49,14.49,14.49
-12.34,0.01,-1.3,16.38,16.38,16.38
-11.9,0.02,-1.29,17.64,17.64,17.64
-11.44,-0.14,-1.06,20.09,20.09,20.09
-10.92,-0.1,-1.05,22.33,22.33,22.33
-10.46,-0.08,-0.88,25.13,25.13,25.13
-9.98,0.01,-0.7,26.53,26.53,26.74
-9.6,-0.05,-0.49,29.89,29.89,29.89
-9.24,0.04,-0.51,33.95,33.95,33.95
-9.05,0.02,-0.34,37.73,37.73,37.73
-8.87,0.13,-0.32,39.55,39.83,39.83
-8.63,0.3,-0.56,39.9,39.9,39.83
-8.82,0.25,-0.79,40.04,40.04,40.04
-9.13,0.24,-0.99,40.11,39.9,39.9
-9.33,0.29,-1.33,38.64,38.64,38.01
-9.5,0.22,-1.6,36.26,36.26,36.26
-9.59,0.1,-1.87,34.16,34.16,34.16
-9.45,0.15,-2.04,31.85,30.87,30.87
-9.34,0.25,-2.09,25.48,25.48,25.48
-9.3,0.24,-2.34,18.9,18.9,18.9
-9.31,-0.19,-2.65,14.07,14.07,14.07
-9.37,-0.77,-2.85,12.46,12.53,12.53
-9.5,-1.16,-3.11,14.49,14.84,14.84
-9.49,-1.11,-3.31,15.82,15.75,15.75
-9.38,-1,-3.49,14.98,14.98,14.49
-8.65,-1.12,-4.15,9.45,8.96,8.96
-8.4,-1.12,-4.51,4.69,4.69,4.69
-8.62,-1.37,-4.7,0.56,0.35,0.35
-8.77,-1.49,-4.95,-1.96,-2.24,-2.24
-8.64,-1.61,-5.14,-3.43,-3.64,-3.64
-8.55,-2.02,-5.39,-1.68,-1.68,-1.12
-8.66,-2.32,-5.6,4.27,4.27,5.46
-8.54,-2.46,-5.78,10.64,10.64,14.21
-7.03,-1.75,-7.24,23.24,23.24,23.24
-7.59,-2.19,-7.04,24.85,24.85,24.85
-8.01,-2.49,-6.83,32.2,33.18,33.18
-8,-2.68,-6.76,38.64,42,42
-7.72,-2.72,-6.72,47.46,48.72,50.96
-7.55,-2.95,-6.77,57.12,58.31,58.31
-5.58,-1.21,-7.64,64.12,62.86,61.46
-5.31,-0.85,-7.52,48.23,46.48,46.48
-5.42,-1.06,-7.31,36.61,36.61,36.61
-6.04,-2.17,-7.25,20.23,20.09,20.09
-5.79,-2.23,-7.39,17.85,17.85,17.85
-5.85,-2.32,-7.12,15.05,15.05,15.05
-5.74,-3.27,-6.59,16.38,16.38,16.73
-4.93,-3.31,-7.25,22.47,21.91,21.91
-4.69,-3.5,-8.27,18.62,17.64,17.64
-4.54,-4.11,-8.95,11.62,11.62,9.8
-4.82,-5.11,-9.74,2.73,2.73,2.31
-5.06,-5.4,-10.73,-2.66,-2.66,-2.66
-5.38,-5.67,-10.89,-6.23,-7.07,-7.07
-5.55,-6.01,-10.37,-6.72,-6.72,-6.72
-5.85,-6.23,-9.57,-1.26,-1.26,-1.26
-5.81,-6.11,-9.16,6.16,6.16,6.16
-5.7,-5.88,-8.67,12.81,12.81,12.81
-5.4,-5.42,-8.5,16.1,16.38,16.38
-4.91,-4.78,-8.46,14.91,14.91,13.51
-4.76,-4.08,-8.01,4.27,4.27,4.27
-4.99,-3.43,-7.66,-5.88,-9.45,-9.45
-5.5,-3.17,-7.44,-20.93,-25.06,-25.06
-6.1,-3.15,-6.82,-38.57,-38.57,-38.57
-6.43,-2.92,-6.44,-47.67,-50.47,-50.47
-6.61,-2.86,-6.41,-58.03,-58.03,-60.34
-6.62,-3.32,-6.68,-64.54,-64.96,-65.94
-6.48,-3.55,-7,-67.62,-67.76,-67.76
-6.68,-3.44,-7.48,-70.98,-70.98,-71.68
-7,-3.73,-8.37,-81.2,-82.04,-82.04
-9.23,-4.63,-7.1,-80.15,-80.15,-79.59
-9.57,-4.8,-6.4,-69.09,-69.09,-69.09
-8.56,-3.68,-5.6,-48.02,-47.39,-47.39
-7.94,-3.04,-5.81,-47.32,-47.32,-47.95
-7.33,-2.23,-5.8,-51.8,-53.62,-54.53
-7.53,-2.03,-5.12,-59.22,-59.78,-59.78
-7.81,-2.39,-4.23,-60.62,-60.62,-60.27
-8.37,-2.42,-3.37,-56.07,-56.07,-55.3
-8.98,-2.55,-2.71,-50.47,-48.3,-47.18
-8.91,-2.4,-2.15,-41.23,-41.23,-38.01
-8.46,-2.18,-1.87,-34.02,-34.02,-33.53
-7.85,-1.64,-1.55,-33.67,-35,-35.63
-7.24,-1.19,-1.16,-41.51,-42.84,-42.84
-7.45,-1.11,-0.76,-53.69,-53.69,-55.09
-7.9,-1.33,-0.55,-61.95,-61.95,-62.93
-8.57,-1.83,-0.02,-65.87,-65.87,-65.8
-8.8,-1.91,0.18,-64.19,-64.19,-64.19
-8.88,-1.83,0.55,-62.79,-62.79,-62.44
-9.14,-1.58,0.9,-60.2,-60.2,-59.92
-9.48,-1.67,1.06,-56.77,-56,-56
-9.54,-1.76,1.47,-48.23,-48.23,-47.18
-9.16,-1.64,1.82,-39.97,-39.97,-38.92
-8.68,-1.64,2.17,-31.85,-31.85,-30.59
-8.36,-1.49,2.68,-22.05,-22.05,-21.21
-8.09,-1.3,3.12,-12.25,-12.25,-12.25
-8.15,-1.44,3.37,-4.48,-4.48,-4.48
-8.82,-1.72,3.8,8.61,8.61,8.61
-8.48,-1.31,3.86,13.86,13.86,14.28
-8.32,-1.17,4.26,19.53,19.53,19.53
-8.85,-1.19,5.22,33.74,33.74,33.74
-8.38,-0.95,6.13,51.38,51.38,51.87
-7.5,-0.37,6.41,50.47,50.47,50.47
-7.46,0.13,6.7,40.81,39.41,39.41
-8.09,0.23,6.68,34.58,34.02,34.02
-8.09,0.32,6.8,30.38,30.38,29.75
-7.78,0.39,6.78,24.64,24.64,24.22
-7.38,0.39,6.87,20.44,20.44,20.02
-7.15,0.5,6.8,17.5,16.52,16.52
-7.61,0.27,6.72,14.28,14.14,14.14
-7.07,0.25,6.59,14.35,14.35,14.21
-5.46,0.48,6.75,12.67,12.67,12.67
-3.93,0.38,7.11,10.64,10.64,10.64
-2.66,0.44,7.58,9.52,9.52,9.52
-1.95,0.39,8.08,8.75,8.75,8.75
-2.11,0.09,8.48,10.78,10.78,10.78
-2.63,0.13,8.9,14.98,14.98,14.98
-2.95,0.26,9.32,16.31,16.31,16.31
-2.79,0.89,9.48,14.28,12.74,12.74
-2.33,1.2,9.67,5.04,5.04,3.99
-1.94,1.11,10.14,-6.02,-6.02,-6.02
-1.48,1.06,10.4,-12.6,-12.6,-15.05
-1.21,0.97,10.62,-22.47,-22.47,-22.47
-0.37,0.4,10.94,-33.18,-33.18,-33.18
0.92,0.26,10.8,-42,-42,-42
1.59,-0.01,10.68,-50.47,-50.47,-50.47
1.29,-1.24,10.64,-51.1,-49.63,-49.63
0.33,-3.22,10.6,-37.24,-37.24,-37.24
0.11,-3.55,10.03,-23.87,-23.87,-21.63
-0.47,-3.62,9.21,-0.56,-0.56,-0.56
-1.23,-3.35,8.76,10.92,14.35,14.35
-2.26,-3.11,8.12,24.57,25.97,25.97
-3.1,-2.86,7.68,39.48,39.48,40.67
-4.53,-2.35,7.27,47.04,47.04,47.81
-6.28,-1.62,6.35,52.64,52.64,52.64
-6.41,-1.22,5.72,51.73,51.73,51.73
-6.66,-0.86,5.44,49.98,49.49,49.49
-7.29,-0.62,5.15,48.58,48.58,48.58
-8.61,0.2,4.48,37.31,36.47,36.47
-8.97,0.6,3.92,25.76,25.76,24.5
-9.3,0.81,3.75,18.2,15.89,14.63
-9.91,1.16,2.89,0.21,0.21,-0.49
-10.28,1.33,2.38,-7.21,-7.21,-7.21
-10.26,1.26,1.85,-10.71,-10.71,-10.71
-11.2,0.96,0.81,-4.9,-4.9,-4.9
-11.18,0.87,0.44,2.38,2.38,2.38
-10.74,0.98,0.11,11.97,11.97,11.97
-10.49,0.86,0.01,17.08,17.99,17.99
-10.28,0.8,-0.16,26.46,26.46,26.46
-9.61,1.15,-0.49,30.38,31.22,31.22
-9.26,1.27,-0.63,33.53,34.44,34.44
-9.01,1.24,-0.71,37.31,38.36,38.36
-9.2,1.05,-0.81,41.86,41.86,43.12
-9.6,0.89,-1,48.16,48.16,49.63
-9.69,1.11,-1.34,53.48,53.48,53.48
-9.68,1.24,-1.61,57.12,57.12,57.47
-9.68,1.04,-1.82,60.48,60.48,61.32
-10.12,1.01,-1.97,65.24,65.24,65.24
-10.15,1.21,-2.34,65.59,65.45,65.45
-10.21,1.14,-2.56,64.33,63.63,63.63
-9.96,0.99,-2.64,62.65,62.44,61.95
-9.93,1.03,-2.8,60.97,60.83,60.27
-9.7,1.21,-2.96,56.84,56.21,56.21
-9.38,1.17,-3.06,51.73,50.96,50.96
-8.98,0.95,-3.26,44.45,44.45,44.03
-8.55,0.73,-3.38,41.09,41.09,40.88
-8.45,0.43,-3.56,38.78,38.78,38.78
-8.8,0.14,-3.66,37.94,37.87,37.87
-8.82,-0.25,-3.78,38.08,38.08,38.29
-8.67,-0.59,-4.11,42.14,42.14,42.14
-8.73,-0.57,-4.48,45.36,45.36,45.36
-8.7,-0.18,-4.69,44.8,43.68,43.68
-8.17,0.13,-4.92,38.92,38.92,37.17
-7.79,0.14,-5.14,32.13,32.13,32.13
-7.88,-0.17,-5.28,27.16,27.16,26.39
-8.16,-0.45,-5.5,25.97,25.97,25.97
-8.56,-0.59,-5.72,27.86,28.14,28.14
-7.57,-0.22,-6.28,30.94,30.94,30.94
-7.57,-0.01,-6.45,27.93,27.93,27.37
-7.34,-0.02,-6.7,25.34,24.43,24.08
-7.26,-0.34,-6.75,23.1,23.24,23.24
-7.37,-0.58,-6.7,24.08,24.08,24.15
-7.11,-0.42,-6.71,24.01,23.73,23.31
-6.73,-0.14,-7,21.14,20.02,19.39
-6.4,-0.19,-7.21,16.24,16.24,14.49
-6.36,-1.12,-7.19,12.11,12.11,12.11
-6.54,-1.38,-7.07,12.39,12.46,12.46
-6.34,-1.52,-7.16,11.2,10.99,10.99
-5.85,-1.75,-7.41,7.49,6.23,5.39
-5.24,-2,-7.77,1.05,-0.91,-0.91
-5.39,-2.56,-8.1,-5.25,-6.23,-6.23
-5.8,-2.94,-8.51,-7.35,-7.63,-7.63
-5.67,-2.77,-9,-9.59,-10.01,-10.01
-4.97,-2.78,-10.27,-15.75,-15.75,-16.45
-4.49,-3.38,-11.3,-20.37,-20.37,-20.51
-4.53,-4.24,-11.88,-19.25,-19.25,-18.76
-4.99,-4.42,-11.89,-11.55,-11.55,-11.55
-5.1,-4.21,-11.47,-5.88,-3.85,-3.85
-5.09,-4.27,-10.62,2.94,2.94,5.39
-4.22,-3.95,-9.51,23.1,23.1,23.1
-3.78,-3.39,-9.01,21.42,21.42,21.42
-3.55,-2.73,-8.53,15.68,13.09,13.09
-2.94,-2.75,-7.96,4.62,4.62,1.75
-2.31,-3.32,-7.15,-7.28,-8.26,-8.26
-2.03,-3.56,-7.39,-13.93,-13.93,-14.28
-2.58,-3.25,-7.77,-14.42,-14.28,-13.93
-3.82,-2.83,-7.86,-12.6,-11.48,-11.13
-4.62,-2.66,-7.95,-7.28,-7.28,-3.78
-5.13,-2.6,-7.86,3.92,3.92,5.81
-5.74,-3.01,-7.43,25.06,25.06,27.58
-6.05,-3.19,-7.47,43.4,43.4,43.4
-5.98,-2.85,-8.95,60.69,65.87,65.87
-6.15,-2.09,-10.6,70.28,70.49,70.21
-7.08,-1.31,-11.46,67.06,65.94,65.94
-8.16,-1.08,-11.01,56.07,51.24,51.24
-9.47,-1.31,-9.28,39.97,39.97,39.97
-9.5,-1.68,-7.91,29.82,28.91,28.91
-9.01,-1.69,-7.37,22.26,22.26,22.26
-8.1,-1.14,-9.25,3.64,3.64,3.64
-7.72,-0.78,-9.64,-14.49,-14.49,-17.85
-7.92,-1.33,-7.07,-72.1,-72.1,-72.87
-7.84,-1.85,-7.62,-77.28,-78.12,-78.12
-7.63,-2.47,-8.37,-84.84,-84.84,-87.71
-7.07,-2.99,-8.77,-92.54,-92.54,-92.54
-6.6,-3.8,-8.14,-94.15,-93.66,-93.66
-6.3,-4.26,-7.35,-89.74,-86.52,-86.52
-6.56,-4.58,-6.15,-79.73,-78.05,-78.05
-7.4,-4.99,-4.83,-60.69,-58.24,-58.24
-7.48,-4.89,-4.18,-43.4,-43.4,-43.4
-6.94,-4.1,-3.11,-23.8,-23.8,-23.8
-6.5,-2.94,-2.49,-17.01,-15.54,-15.54
-5.95,-2.15,-1.56,-12.04,-12.04,-11.27
-5.5,-1.34,-0.99,-11.62,-11.62,-13.02
-5.81,-0.84,-0.4,-18.76,-18.76,-18.76
-6.54,-0.63,-0.11,-31.78,-31.78,-31.78
-7.25,-0.5,0.01,-40.04,-40.04,-40.04
-10.87,-1.94,0.46,-40.6,-40.6,-40.6
-10.49,-1.55,0.66,-37.87,-37.87,-37.87
-9.69,-1.2,0.65,-38.22,-38.57,-38.57
-9.2,-0.73,0.8,-44.87,-44.87,-45.57
-9.15,-0.92,1.24,-48.23,-48.23,-48.3
-9.28,-1.01,1.8,-47.32,-47.32,-47.32
-9.44,-1.46,2.38,-42.7,-42.7,-42.7
-9.04,-1.7,2.72,-36.54,-36.54,-36.54
-8.66,-1.79,3.07,-28.07,-28.07,-28.07
-8.48,-1.72,3.57,-17.99,-17.99,-17.99
-8.04,-1.72,3.9,-11.41,-9.03,-9.03
-7.74,-1.73,4.22,-1.68,-1.68,0.63
-7.73,-1.47,4.68,6.72,6.72,6.72
-7.67,-0.73,5.26,13.16,13.16,13.16
-7.7,-0.56,5.55,15.19,15.19,15.19
-7.59,-0.48,5.8,16.66,16.66,16.66
-7.5,-0.17,6.11,15.96,15.75,15.75
-6.21,0.51,6.41,13.16,10.64,10.64
-5.61,0.52,6.83,7.21,6.93,6.93
-5.51,1.01,7.07,2.45,1.19,1.19
-4.82,0.71,7.36,-2.94,-2.8,-2.8
-5.13,0.17,7.55,-1.47,-0.98,0.28
-5.31,-0.34,8.3,6.72,6.72,7.7
-5.16,-0.08,8.74,16.94,16.94,16.94
-0.21,0.42,10.09,22.26,21.91,21.91
0.58,0.77,10.33,19.46,19.46,18.13
0.51,0.99,10.7,11.62,10.5,10.5
-0.5,0.61,11.03,3.43,3.43,3.43
-2.42,-0.06,11.09,-1.26,-1.26,-1.26
-2.73,0.24,10.75,-3.99,-3.99,-3.99
-3.07,0.41,10.75,-7.7,-9.17,-9.17
-2.17,0.35,10.68,-14.28,-14.7,-14.7
-1.4,0.07,10.43,-18.62,-18.62,-18.97
-1.49,-0.49,10.46,-20.37,-20.79,-21.21
-1.27,-0.81,10.11,-22.26,-22.4,-22.4
-1.32,-1.38,9.79,-21.14,-21.14,-20.37
-1.28,-1.8,9.56,-14.14,-14.14,-12.81
-1.77,-1.59,8.99,-4.13,-2.38,-2.38
-2.62,-1.38,8.63,1.47,1.47,2.38
-2.91,-1.25,8.37,5.74,5.74,5.74
-3.27,-1.14,8.13,9.31,9.31,9.31
-3.26,-0.64,7.83,8.12,7.84,7.84
-3.1,-0.34,7.47,3.22,2.87,2.87
-3.94,-0.42,7.37,1.33,0.7,0.56
-4.96,-0.59,7,-0.21,-0.49,-0.49
-5.83,-0.74,6.65,-0.84,-0.84,-0.7
-6.6,-0.64,6.36,1.4,1.4,1.68
-7.12,-0.29,5.7,3.08,3.08,3.08
-7.56,-0.23,5.65,3.92,3.92,3.92
-7.53,-0.05,5.23,2.66,2.66,1.61
-7.81,0.33,4.71,-2.59,-2.59,-2.59
-7.9,1.01,3.94,-15.82,-15.82,-15.82
-8.37,1.16,3.46,-28.42,-28.42,-28.42
-8.91,1.23,3.25,-36.96,-39.48,-39.48
-9.66,1.18,2.94,-45.99,-45.99,-48.37
-10.18,1.67,2.62,-57.19,-57.19,-57.19
-10.34,2.22,2.24,-73.01,-73.01,-73.01
-10.36,2.9,2.05,-82.67,-84.42,-84.42
-10.45,3.16,1.61,-95.69,-95.69,-99.61
-10.54,2.69,1.56,-103.11,-103.11,-103.11
-10.61,2.46,1.48,-100.8,-100.8,-100.31
-11.09,2.94,1.28,-97.16,-97.16,-96.88
-10.88,3.01,0.99,-90.93,-90.93,-90.93
-10.08,3.4,0.69,-83.79,-83.79,-82.74
-9.69,3.21,0.61,-73.43,-70.07,-70.07
-9.16,3.13,0.29,-57.4,-57.4,-55.58
-9.26,3.26,-0.01,-42.07,-42.07,-42.07
-8.84,3.39,-0.28,-35.7,-33.95,-33.95
-8.62,3.34,-0.69,-28.77,-27.44,-27.44
-8.72,3.17,-0.99,-21.98,-21.42,-21.42
-9.41,4.04,-2.2,-25.55,-25.27,-25.27
-9.51,4.12,-2.53,-23.03,-23.03,-23.1
-9.3,4.24,-2.54,-24.01,-24.01,-24.29
-8.78,4.5,-2.76,-28.91,-28.91,-28.91
-8.63,4.1,-2.87,-31.15,-31.15,-31.15
-8.41,3.77,-2.84,-26.81,-26.81,-26.81
-8.3,4.07,-2.71,-25.2,-25.2,-25.2
-7.56,4.55,-2.84,-25.69,-25.69,-25.76
-7.67,3.57,-2.79,-13.44,-13.44,-13.44
-7.5,3.59,-2.87,-0.07,-0.07,-0.07
-6.6,4.12,-3.08,8.4,10.64,10.64
-6.14,4.67,-3.06,14.28,14.77,15.68
-5.6,5.05,-3.19,19.32,20.09,20.09
-5.52,5.56,-3.17,25.76,25.76,26.39
-5.56,5.99,-3.4,27.16,27.16,26.88
-5,6.99,-3.57,24.92,23.59,23.59
-4.34,8.09,-3.9,19.67,18.13,0.21
-4.21,9.22,-4.09,13.65,13.65,12.53
-3.59,10.29,-4.31,8.54,8.54,6.79
-3.93,11.55,-4.01,-5.25,-5.25,-5.25
-4.44,11.94,-3.77,-18.27,-22.82,-22.82
-4.32,12.43,-4.14,-27.44,-28.77,-28.77
-4.24,12.92,-4.61,-28.14,-28.14,-28.14
-4.44,12.61,-4.97,-20.37,-20.37,-20.37
-4.35,11.8,-5.28,-10.08,-10.08,-10.08
-3.69,10.94,-5.6,1.19,1.19,3.43
-4.19,10.24,-6.03,26.67,26.67,26.67
-4.37,9.21,-6.06,41.3,45.71,45.71
-4.6,7.56,-5.88,59.64,61.39,61.39
-5.18,6.39,-5.73,79.73,79.73,81.76
-6.07,5.73,-5.7,90.93,93.66,94.92
-6.55,5.71,-5.85,99.54,99.89,99.89
-6.58,5.59,-6.1,98.77,98.77,98.14
-6.5,5.64,-6.23,94.22,92.54,91.42
-6.8,5.85,-6.59,85.82,83.09,81.9
-7.26,5.94,-6.56,74.48,74.48,69.58
-7.96,5.68,-6.32,61.25,61.25,59.5
-8.36,5.46,-6.05,48.86,48.86,44.52
-8.63,5.09,-5.49,37.31,37.31,32.69
-9.02,4.62,-4.88,21.98,21.98,21.98
-9.05,4.23,-4.6,12.18,12.18,12.18
-8.74,3.55,-4.11,7,7,7
-8.5,3.52,-3.82,6.58,6.58,6.58
-8.27,3.36,-3.56,7.07,7.07,7.14
-8.13,3.12,-2.99,8.89,8.89,8.89
-8.07,2.52,-2.45,12.95,12.95,12.95
-7.81,2.09,-1.88,20.93,20.93,20.93
-7.41,1.78,-1.15,30.24,30.24,30.24
-7.29,1.61,-0.91,34.58,34.58,34.58
-7.25,1.54,-0.39,36.19,36.26,36.26
-7.78,1.37,-0.21,37.38,38.57,38.57
-8.85,1.04,-0.13,42.91,42.91,42.91
-9.61,0.64,0.3,53.13,53.13,53.13
-9.77,0.45,0.55,60.55,63.07,63.07
-9.69,0.93,0.94,69.44,69.44,69.44
-9.05,1.49,1.01,69.65,69.23,69.23
-8.37,2.11,1.52,60.55,60.55,59.43
-7.81,2.32,1.79,51.94,51.94,50.33
-7.35,2.38,2.28,35.21,35.21,33.74
-7.34,2.14,2.59,24.22,24.22,24.22
-7.4,1.57,2.91,17.22,17.22,16.45
-8.69,0.16,4.09,21.7,23.52,23.52
-8.67,-0.01,4.33,29.19,29.19,30.94
-8.46,0.3,4.44,35.21,35.21,35.21
-8.29,0.9,4.48,37.87,37.87,37.87
-8.15,0.93,4.66,36.54,36.54,36.54
-8.3,0.84,4.81,35.49,35.49,35.49
-8.85,0.66,4.98,35.77,35.77,35.77
-9.16,0.56,5.21,36.4,36.4,36.4
-8.92,0.56,5.38,39.06,39.06,39.06
-8.44,0.71,5.4,41.23,41.23,41.23
-7.76,1.2,5.44,39.41,38.85,38.85
-7.23,1.41,5.57,33.32,32.41,32.41
-7.25,1.41,5.67,25.27,25.27,24.15
-7.87,1.02,5.92,17.99,17.43,17.43
-8.35,0.57,6.17,16.45,17.01,17.01
-8.31,0.26,6.25,18.27,19.46,19.46
-7.68,0.22,6.43,20.79,21,21
-6.54,0.4,6.51,21.07,20.37,20.37
-5.93,0.84,6.72,16.24,15.12,15.12
-5.48,0.99,6.91,7.63,6.16,6.16
-5.26,0.7,7.21,-2.59,-2.59,-2.59
-5.71,0.42,7.56,-6.72,-6.86,-6.86
-6.05,0.1,7.82,-5.04,-4.55,-4.55
-6.03,-0.48,8.01,0.28,1.05,1.05
-6.17,-0.78,8.19,7.35,7.35,8.19
-5.87,-0.52,8.16,14.35,14.35,14.35
-5.33,-0.16,8.33,16.73,16.73,16.73
-3.65,0.93,8.07,9.8,9.03,9.03
-3.04,1.44,8.99,-1.75,-3.36,-3.36
-2.6,1.36,9.34,-13.23,-13.23,-13.23
-2.55,0.92,9.68,-25.55,-25.55,-26.46
-3.16,0.31,10.08,-31.64,-31.64,-31.64
-3.99,-0.02,10.22,-32.34,-32.06,-32.06
-4.56,-0.14,10.31,-30.31,-29.61,-29.12
-4.81,-0.15,10.16,-27.23,-27.23,-25.97
-5.03,-0.56,10.12,-24.22,-24.22,-23.87
-5.1,-1.12,9.98,-19.6,-17.92,-17.15
-4.78,-1.39,9.91,-13.02,-13.02,-10.64
-3.89,-1.56,9.79,-4.34,-4.34,-4.34
-3.26,-1.42,9.37,3.29,3.29,3.29
-2.92,-1.09,8.88,4.83,4.83,4.83
-3.64,-1.29,8.37,5.32,5.32,5.53
-4.37,-1.55,8,7.42,7.42,7.42
-4.77,-1.55,7.66,8.68,8.68,8.68
-5.01,-1.37,7.24,8.75,8.75,8.75
-5.62,-1.12,6.95,8.33,8.33,8.33
-6.08,-0.68,6.31,8.61,8.54,8.54
-6.5,-0.51,5.88,6.09,5.53,5.53
-7,-0.41,5.54,2.73,2.73,2.73
-7.24,-0.49,5.16,0.14,0.14,0.14
-7.43,-0.57,4.93,0.63,0.91,0.91
-7.52,-0.72,4.51,2.52,2.52,2.94
-7.37,-0.89,4.14,6.72,6.72,7.98
-7.54,-1.08,3.88,13.93,13.93,13.93
-7.68,-0.86,3.19,23.17,23.17,23.17
-8.04,-0.75,2.41,31.64,31.64,31.64
-8.61,-1.07,2.05,37.1,37.1,37.1
-9.11,-1.08,1.44,50.82,50.82,50.82
-9.64,-0.8,1.06,61.74,61.74,61.74
-9.98,-0.29,0.6,66.01,66.85,66.85
-9.82,0.09,-0.06,67.69,67.69,67.76
-10.34,-0.04,-0.21,70.35,70.35,70.35
-11.3,0.04,-0.23,73.01,73.43,73.43
-11.06,0.77,-0.3,71.12,71.12,70.49
-10.63,1.03,-0.35,62.51,62.51,61.46
-10.56,0.97,-0.4,54.95,54.95,54.95
-10.59,0.95,-0.43,43.4,43.4,43.4
-10.15,0.95,-0.3,35.28,35.28,35.28
-9.84,0.61,-0.17,29.54,29.54,29.54
-9.26,0.13,-0.36,28.56,28.56,28.56
-9.02,0,-0.56,32.62,33.39,33.39
-9.17,-0.05,-0.73,39.13,39.13,39.97
-9.03,-0.17,-1.08,46.62,46.62,46.62
-8.75,-0.11,-1.66,56.91,56.91,56.91
-9.27,-0.15,-2.05,64.05,64.05,64.05
-10.23,-0.29,-2.44,70.84,70.84,70.84
-10.7,-0.25,-2.7,79.38,79.38,80.36
-10.77,0.05,-3.2,86.03,86.03,86.24
-10.72,0.39,-3.54,86.17,86.17,85.82
-10.58,0.72,-3.61,81.06,81.06,81.06
-10.3,1.12,-3.6,74.2,71.26,71.26
-10.1,1.4,-3.49,61.04,61.04,57.26
-9.81,1.43,-3.5,45.99,45.99,45.99
-9.66,1.1,-3.55,28.77,28.77,28.77
-9.51,0.66,-3.48,18.48,18.48,18.48
-9.62,0.15,-3.18,14.42,14.42,14.42
-9.84,-0.56,-2.87,13.93,14.07,14.07
-9.49,-0.74,-2.94,15.05,15.05,15.19
-8.93,-0.64,-3.03,15.68,15.68,15.68
-8.79,-0.86,-3.18,15.89,15.89,15.89
-8.92,-0.91,-3.4,17.01,17.15,17.15
-9,-0.91,-3.48,17.64,17.85,17.85
-9.23,-1.23,-3.68,18.41,19.39,19.39
-9.19,-1.67,-3.83,22.33,24.64,24.64
-8.97,-1.61,-4.36,29.68,30.24,30.24
-9.15,-1.19,-4.58,31.57,31.22,31.22
-9.28,-0.91,-4.56,28.98,28.98,28.98
-8.95,-0.77,-4.68,25.41,24.64,24.64
-8.54,-0.63,-4.87,21.63,21.63,20.44
-8.15,-0.75,-5.51,16.45,16.45,16.45
-8.21,-1.2,-5.94,14.21,14.21,14.21
-8.56,-1.72,-6.04,18.76,19.46,19.46
-8.77,-2,-6.03,23.38,24.99,25.76
-8.59,-1.56,-5.89,29.96,29.96,30.31
-8.42,-1.48,-5.77,31.22,31.22,31.22
-8.3,-1.56,-6.23,29.89,29.89,29.89
-8.27,-1.71,-6.7,27.3,26.67,26.67
-8.19,-1.73,-7.26,20.02,20.02,20.02
-8.71,-2.15,-7.52,10.08,9.1,9.1
-9.53,-2.42,-7.27,2.52,1.68,1.68
-10.21,-2.59,-7.3,-2.73,-3.43,-3.43
-10.27,-2.74,-7.5,-10.99,-10.99,-11.9
-9.91,-2.51,-7.59,-19.25,-19.25,-20.3
-10.08,-2.78,-6.25,-34.51,-34.51,-34.51
-9.96,-2.78,-5.55,-37.8,-37.8,-37.8
-9.49,-2.34,-5.17,-43.82,-43.82,-43.82
-8.93,-1.66,-4.83,-51.1,-51.1,-51.1
-8.6,-0.47,-3.8,-82.32,-83.51,-83.51
-8.77,-0.58,-3.09,-92.26,-92.26,-92.89
-9.07,-0.88,-2.65,-94.36,-94.43,-94.22
-9.17,-1.07,-2.13,-92.82,-92.82,-92.33
-9.07,-0.87,-1.78,-88.2,-88.2,-87.71
-8.91,-0.82,-1.49,-84.77,-84.77,-84.35
-9.05,-0.76,-1.32,-80.01,-80.01,-80.01
-9.23,-0.46,-1.51,-76.72,-76.79,-76.79
-9.35,0,-1.48,-78.12,-78.61,-78.61
-9.42,-0.06,-1.53,-81.34,-81.34,-81.48
-10.05,-0.55,-1.42,-80.64,-80.64,-80.22
-10.94,-0.63,-1.08,-76.23,-76.23,-75.53
-11.4,-0.81,-0.78,-70.98,-70.14,-70.14
-10.91,-0.73,-0.95,-63.49,-63.49,-63.07
-9.89,-0.51,-0.89,-61.39,-60.97,-60.9
-8.98,-0.37,0.48,-53.9,-53.9,-53.06
-8.74,0.11,1.37,-44.59,-44.59,-44.59
-9.61,-0.15,1.56,-45.57,-45.57,-45.57
-9.82,-0.32,1.87,-39.13,-38.08,-35.7
-9.09,0.63,2.42,-23.73,-23.24,-23.24
-9.35,0.94,2.77,-21.42,-21.14,-20.72
-9.36,1.18,2.94,-18.55,-18.55,-18.2
-9.27,1.46,3.1,-16.52,-16.52,-16.52
-9.55,1.92,3.23,-17.5,-18.27,-18.27
-9.94,1.61,3.69,-19.67,-19.67,-19.67
-9.47,1.04,4.03,-15.26,-14.35,-14.35
-9.21,0.92,4.51,-7.77,-6.93,-6.93
-8.38,1.29,4.91,-3.29,-3.08,-3.08
-7.63,2.1,5.15,-3.43,-3.71,-3.71
-8.09,2.23,5.74,-7.28,-7.28,-7.35
-8.2,1.87,6.04,-6.23,-4.83,-3.99
-7.65,1.69,6.22,0.7,2.52,2.52
-6.76,2.15,6.43,6.93,7.28,7.28
-5.89,2.48,6.73,7.63,7.63,7.56
-5.4,2.62,6.73,4.97,4.97,4.97
-6.05,2.02,6.89,2.17,2.17,2.17
-6.31,1.68,6.89,3.15,3.57,3.57
-7.07,1.19,6.79,5.88,5.88,5.88
-7.41,1.07,6.55,6.37,6.16,6.16
-6.84,0.88,6.65,4.55,4.41,4.41
-6.38,0.75,6.76,4.13,4.13,4.27
-6.27,0.8,6.89,4.83,4.55,4.34
-5.79,1.07,6.95,2.59,2.59,1.4
-3.69,0.51,7.74,-4.83,-4.83,-4.83
-3.83,0.39,8.08,-10.5,-11.27,-11.27
-3.66,0.45,8.35,-16.45,-19.39,-19.39
-3,0.54,8.74,-25.41,-25.41,-25.41
-2.79,0.28,8.84,-31.85,-31.85,-32.69
-3.13,0.03,8.6,-40.46,-40.46,-40.46
-3.82,-0.34,8.68,-44.66,-44.66,-44.66
-4.19,-0.43,8.78,-45.64,-45.64,-45.64
-4.17,-0.64,8.83,-45.22,-45.22,-44.8
-3.86,-0.91,8.54,-42.84,-42.84,-42.84
-4.28,-1.67,8.6,-40.18,-39.41,-39.41
-3.92,-2.12,8.81,-31.01,-31.01,-29.96
-3.16,-1.98,8.73,-24.99,-24.99,-24.15
-3.65,-1.92,8.54,-17.99,-17.08,-17.08
-3.87,-1.68,7.99,-10.15,-10.15,-9.45
-4.23,-1.45,7.75,-6.09,-6.09,-4.27
-4.94,-1.15,7.38,-1.82,-1.82,-1.54
-5.94,-1.07,7.21,-1.26,-1.26,-1.26
-6.63,-0.99,7,-0.77,-0.77,-0.63
-6.86,-0.77,6.66,0.49,0.49,0.49
-7.65,-0.44,6.14,0.42,0.14,0.14
-8.15,-0.18,5.93,-1.61,-3.5,-3.5
-8.24,-0.11,5.5,-6.37,-6.79,-7.7
-8.94,-0.02,4.84,-13.23,-13.65,-13.65
-9.09,0.09,4.41,-17.64,-17.64,-17.64
-9.15,0.1,4.02,-22.61,-22.96,-22.96
-9.24,0.19,3.84,-25.13,-25.41,-26.32
-9.4,0.31,3.65,-28.21,-28.56,-28.56
-9.45,0.56,3.56,-31.5,-31.78,-31.78
-9.48,0.45,3.64,-33.6,-33.6,-33.6
-9.6,0.35,3.6,-33.11,-32.97,-32.97
-9.8,0.22,3.51,-31.22,-30.87,-30.87
-9.87,0.21,3.52,-28,-25.9,-25.9
-9.3,0.43,3.59,-21.56,-21.56,-21.56
-8.82,0.68,3.44,-19.81,-19.81,-19.81
-8.82,0.84,3.43,-19.6,-19.6,-19.6
-8.78,1.08,3.29,-21,-21,-21
-8.67,1.15,3.3,-23.8,-23.8,-24.43
-8.64,1.01,3.18,-27.58,-27.58,-28.28
-9.03,0.78,2.98,-30.31,-30.31,-31.01
-9.44,0.51,2.8,-33.39,-33.67,-33.67
-9.37,0.57,2.78,-34.3,-34.3,-34.23
-9.1,0.62,2.53,-34.51,-34.51,-34.51
-9.39,0.73,2.21,-33.95,-33.95,-33.95
-9.51,0.86,1.9,-32.69,-32.69,-32.69
-9.27,1.25,1.49,-32.2,-31.85,-31.85
-9.17,1.62,0.92,-30.73,-30.03,-30.03
-9.25,2.04,0.33,-27.93,-27.93,-27.09
-9.4,2.3,-0.24,-23.59,-23.59,-23.59
-9.5,2.39,-0.76,-18.69,-17.71,-15.89
-9.84,2.62,-1.21,-9.03,-9.03,-8.05
-10.05,2.78,-1.55,-1.33,-1.33,0.35
-10.24,3.06,-1.93,6.02,6.02,6.02
-10.28,3.33,-2.31,8.19,8.05,8.05
-10.1,3.63,-2.57,5.6,4.83,4.83
-9.96,3.57,-2.81,-1.82,-1.82,-2.45
-9.92,3.29,-2.75,-6.16,-6.16,-6.16
-9.88,3.11,-3.05,-10.5,-10.5,-10.85
-9.83,3.02,-3.11,-13.09,-13.09,-13.65
-9.51,2.84,-3.15,-14.42,-14.42,-14.56
-9.47,3.03,-3.12,-16.45,-16.45,-16.45
-9.29,3.2,-3.21,-21.91,-21.91,-21.91
-9,3.12,-3.24,-24.29,-24.36,-24.36
-8.71,2.76,-3.3,-22.68,-22.68,-21.98
-8.74,2.6,-3.29,-18.55,-17.08,-17.08
-8.71,2.93,-3.23,-13.58,-13.58,-12.74
-8.57,3.2,-3.15,-11.06,-11.06,-10.71
-8.66,3.54,-3.14,-10.43,-10.43,-10.43
-8.42,4.14,-3.12,-13.72,-13.72,-14.42
-8.37,4.31,-2.98,-20.02,-20.02,-20.72
-8.21,4.12,-2.78,-26.32,-26.32,-26.32
-8.11,4.04,-2.62,-28.77,-29.68,-29.68
-8.16,4.16,-2.39,-32.83,-33.81,-33.81
-8.05,4.26,-2.5,-36.12,-36.75,-36.75
-7.77,4.32,-2.56,-38.36,-38.78,-38.78
-7.49,4.28,-2.52,-39.83,-39.97,-39.97
-7.53,4.12,-2.41,-41.86,-41.86,-41.86
-7.47,3.92,-2.54,-42.98,-42.98,-42.98
-7.34,3.95,-2.78,-40.88,-40.88,-40.88
-7.36,4.19,-2.92,-38.71,-38.01,-38.01
-7.64,4.47,-3.02,-36.4,-36.4,-35.91
-7.6,4.68,-3.21,-34.02,-34.02,-33.11
-7.45,4.8,-3.35,-29.89,-29.89,-29.89
-7.31,5.16,-3.61,-23.03,-23.03,-23.03
-7.07,5.58,-3.79,-19.53,-19.53,-18.69
-7.25,6.42,-4.08,-17.36,-17.36,-17.36
-7.21,6.59,-4.03,-18.55,-18.55,-18.55
-6.62,6.73,-4.02,-17.78,-17.78,-17.78
-5.82,6.95,-4.04,-18.41,-18.41,-18.41
-5.05,6.95,-4.01,-21,-21.91,-21.91
-4.98,6.58,-4.02,-23.73,-23.73,-23.73
-5.41,6.2,-3.67,-21.98,-21.98,-21.98
-5.99,5.88,-3.61,-16.45,-16.45,-16.45
-6.1,5.73,-3.84,-7.77,-7.77,-7.77
-5.67,6.34,-4.64,0.63,2.03,2.03
-5.86,7.21,-5.23,14.35,15.68,15.68
-6.24,7.62,-5.65,23.03,27.44,27.44
-5.62,9.38,-7.59,59.85,59.85,59.85
-6.09,9.42,-7.97,68.04,69.09,69.09
-6.47,9.12,-7.9,73.92,74.62,74.62
-6.56,8.48,-7.62,76.93,77.07,77.07
-6.82,7.69,-7.25,76.16,76.16,75.88
-6.93,6.95,-7.27,74.41,74.41,74.27
-7.08,6.4,-7.56,75.11,75.88,75.88
-7.04,5.93,-7.8,77.7,77.98,77.98
-7.55,5.68,-8.08,78.54,78.54,78.75
-8.3,5.41,-8.22,78.96,78.96,78.96
-8.56,5.15,-7.93,77.35,76.86,76.86
-8.58,4.96,-7.5,69.65,68.46,68.46
-8.39,4.71,-7.18,60.76,59.36,56.7
-8.12,4.51,-6.65,49.49,47.88,47.88
-7.77,4.15,-5.83,35.14,33.53,33.53
-7.67,3.84,-5.49,24.36,23.17,20.51
-7.64,3.44,-4.91,14.56,13.65,13.65
-7.32,3.04,-4.4,5.88,5.18,5.18
-7.25,2.75,-3.79,2.1,2.1,2.1
-7,2.54,-3.2,0.63,0.63,0.63
-7.26,2.14,-2.43,1.47,1.68,1.68
-7.77,1.6,-1.72,5.18,5.18,5.18
-7.82,1.16,-1.29,8.96,10.43,10.43
-7.81,0.89,-0.74,15.33,15.33,15.33
-8.19,0.64,-0.23,23.24,24.22,24.22
-9.11,0.7,0.06,37.17,37.17,37.17
-9.1,0.97,0.1,40.04,40.04,40.04
-9.28,0.88,0.21,41.72,41.72,41.72
-9.85,0.73,0.55,45.08,45.43,45.43
-10.09,0.95,0.72,43.82,43.82,43.4
-9.67,0.78,0.84,40.46,40.46,40.11
-9.32,0.4,0.98,39.2,38.92,38.99
-9.16,0.02,1.09,38.57,38.57,38.71
-8.94,-0.25,1.08,38.99,38.99,38.99
-8.48,-0.37,1.24,39.62,39.62,39.83
-8.16,-0.46,1.46,40.95,41.58,41.86
-8.19,-0.64,1.83,44.1,44.1,44.45
-8.17,-0.78,2.05,46.13,46.13,46.13
-7.97,-0.81,2.23,46.9,46.9,46.9
-8.16,-0.81,2.37,47.6,47.6,48.02
-8.67,-1.18,2.7,49.63,49.63,49.63
-8.82,-1.39,2.94,56,56,56
-9.04,-1.27,3.17,61.74,61.74,61.74
-9.14,-1.02,3.34,64.33,64.33,64.33
-8.85,-1.07,3.64,66.57,66.78,66.78
-8.36,-1.16,3.85,69.23,70.98,70.98
-8.29,-0.99,4.03,73.92,75.04,75.04
-7.81,-0.19,4.26,73.22,73.22,73.22
-7.58,0.15,4.43,65.8,65.8,63.77
-8.15,-0.07,4.67,59.36,59.36,59.36
-8.83,-0.62,5.21,58.59,58.87,58.87
-8.77,-0.9,5.5,63.77,64.68,64.68
-7.93,-0.4,5.63,70,70,70
-6.67,0.99,5.6,66.71,61.88,61.88
-5.85,1.42,5.69,51.17,48.93,44.38
-5.95,0.9,5.73,34.79,33.25,33.25
-6.91,-0.37,5.89,26.67,27.02,27.02
-8.55,-1.24,6.17,33.53,35,35
-8.87,-1.26,6.44,43.05,46.83,46.83
-8,0.01,6.59,50.12,50.12,50.12
-7.06,1.24,6.61,43.96,37.87,37.87
-5.49,2.15,7.03,18.62,18.62,18.62
-5.5,1.75,7.42,-8.05,-8.05,-8.05
-5.63,1.09,7.47,-20.16,-20.16,-20.16
-6.09,0.28,7.82,-25.83,-25.69,-25.69
-6.36,-0.19,8.22,-21.98,-21.21,-21.21
-5.82,-0.07,8.82,-16.94,-16.52,-16.52
-4.97,0.29,8.93,-15.89,-16.87,-16.87
-3.81,0.58,8.85,-22.82,-22.82,-22.82
-3.6,-0.53,9.79,-37.31,-37.31,-37.31
-3.98,-1.05,10.02,-33.11,-33.11,-32.2
-3.95,-1.05,10.14,-29.82,-29.33,-29.33
-3.62,-1.04,9.93,-27.3,-26.39,-26.39
-3.57,-1.57,9.86,-22.82,-22.82,-21.35
-3.11,-1.79,9.61,-16.38,-14.63,-14.63
-2.69,-1.85,9.38,-8.89,-8.89,-7
-2.49,-1.84,9.14,-1.54,-1.54,0.14
-2.12,-1.67,8.59,6.02,6.02,8.12
-2.84,-1.74,8.17,15.75,16.94,16.94
-3.31,-1.69,7.66,28,28,28
-4.19,-1.8,7.42,41.51,41.51,44.59
-4.71,-1.13,6.64,52.36,53.13,53.13
-5.17,-0.65,5.89,55.23,55.23,55.16
-5.5,-0.34,5.41,54.53,54.11,53.9
-6.57,-0.22,4.95,52.5,52.5,51.31
-7.99,-0.28,4.95,46.55,46.55,46.55
-8.36,-0.35,4.36,41.86,41.86,41.72
-8.66,-0.11,3.78,41.86,42.07,42.07
-9.34,0.27,3.48,41.37,41.37,39.97
-9.75,0.3,3.25,37.38,37.38,36.75
-9.93,0.24,2.89,33.53,32.97,32.97
-10.01,0.49,2.45,29.26,29.26,28.84
-10.1,0.48,2.19,26.74,26.25,25.97
-10.43,0.29,1.96,25.9,26.39,26.81
-10.94,0.23,1.79,30.45,31.08,31.08
-11.15,0.27,1.68,36.75,36.75,36.75
-10.83,0.47,1.5,41.58,41.58,42.14
-10.46,0.76,1.33,45.36,45.36,45.36
-9.91,1.14,1.22,45.64,45.64,45.64
-9.83,1.3,1.16,44.8,44.59,44.59
-9.68,1.07,1.24,44.59,44.59,44.59
-9.41,1.09,1.18,47.25,47.25,47.6
-9.43,1.29,1.32,48.65,48.93,49
-10.16,1.5,0.92,49.63,49.63,49.63
-10.31,1.71,0.9,50.61,50.61,50.54
-10.11,1.98,1.06,48.58,48.58,48.58
-9.94,2.23,1.11,43.68,43.68,43.68
-9.9,2.31,0.95,38.01,38.01,38.01
-9.64,2.59,0.77,28.42,28.42,28.42
-9.41,2.75,0.79,21.28,18.48,18.48
-9.31,2.68,0.95,10.08,10.08,7.35
-8.66,1.13,0.2,-5.74,-6.16,-6.16
-8.69,1.08,-0.63,-8.12,-8.33,-8.33
-8.93,0.7,-1.14,-10.78,-10.78,-10.92
-9.08,0.05,-2.34,-12.95,-12.95,-12.95
-9.38,-0.21,-3.17,-13.44,-13.23,-13.23
-9.65,-0.33,-3.74,-12.74,-12.32,-12.18
-9.97,-0.74,-4.11,-10.85,-9.87,-9.31
-10.35,-1.3,-4.31,-5.39,-3.29,-2.03
-10.13,-1.37,-4.48,4.48,4.48,7.84
-9.44,-0.84,-4.82,12.18,12.18,13.09
-8.56,-0.08,-5.28,12.39,12.39,12.04
-7.99,-0.16,-5.54,7.14,6.51,6.51
-7.59,-0.63,-5.72,3.92,3.92,3.92
-7.1,-0.78,-6.14,4.41,3.99,3.99
-7.32,-1.06,-6.39,3.29,3.08,3.08
-7.74,-1.4,-6.65,3.36,3.99,3.99
-7.87,-1.69,-7.14,6.16,7.84,7.84
-8.12,-1.84,-7.58,12.46,12.46,12.46
-8.8,-1.73,-7.91,23.87,23.87,23.38
-7.83,-1.9,-7.39,-26.81,-26.81,-26.81
-7.53,-2.07,-7.4,-33.32,-35.07,-36.05
-7.41,-2.18,-7.46,-40.32,-40.32,-42.63
-8.35,-2.22,-8.1,-50.26,-50.26,-49.84
-8.77,-2.48,-7.88,-47.25,-46.55,-46.55
-9.26,-2.88,-7.27,-39.06,-39.06,-35.14
-9.65,-3,-6.68,-28,-28,-23.94
-9.74,-2.49,-6.41,-17.29,-17.29,-17.29
-9.19,-1.78,-6.01,-16.03,-16.03,-16.03
-8.48,-1.3,-5.67,-18.83,-20.16,-20.16
-8.29,-0.81,-5.02,-26.39,-26.39,-26.39
-8.32,-0.51,-4.6,-35.98,-37.24,-37.24
-8.31,-0.37,-4.31,-49.56,-49.56,-50.75
-8.48,-0.46,-4.08,-56.14,-57.61,-58.38
-8.94,-0.81,-3.67,-60.2,-60.27,-60.27
-9.15,-1.08,-3.32,-58.17,-58.17,-57.68
-9.17,-1.2,-3.2,-54.88,-53.34,-52.57
-9.4,-1.52,-2.73,-45.5,-45.5,-45.5
-9.5,-1.05,-2.08,-18.34,-16.03,-16.03
-8.73,0.13,-0.65,-12.18,-12.18,-12.18
-8.75,0.22,-0.22,-14.56,-15.61,-15.61
-8.73,0.06,0.56,-20.65,-20.65,-20.65
-8.86,-0.24,0.84,-19.74,-19.18,-19.18
-9.07,-0.26,0.97,-17.85,-17.29,-17.29
-9.11,-0.17,1.2,-16.45,-16.31,-16.31
-9.07,-0.05,1.33,-15.05,-14.84,-14.84
-9,-0.05,1.42,-13.93,-13.86,-13.86
-9.02,0.06,1.57,-14,-14,-14
-9.32,0.03,1.66,-14.21,-14.07,-14.07
-9.54,0.11,1.67,-13.86,-13.93,-13.93
-9.72,0.2,1.89,-13.93,-13.93,-14
-9.87,0.4,1.92,-14.49,-14.49,-14.7
-10.06,0.57,1.86,-17.29,-17.29,-17.57
-10.12,0.53,1.9,-18.27,-18.27,-18.48
-9.87,0.44,2.02,-18.48,-18.48,-18.48
-9.62,0.57,1.98,-19.18,-19.18,-19.25
-9.59,0.65,2.12,-20.16,-20.16,-20.16
-9.77,0.51,2.31,-20.3,-19.95,-19.95
-9.85,0.27,2.46,-18.55,-18.55,-18.13
-9.74,0.16,2.5,-16.8,-16.8,-16.8
-9.56,0.11,2.66,-15.33,-15.33,-15.33
-9.37,0.14,2.66,-15.12,-15.12,-14.91
-8.99,0.21,2.83,-16.38,-16.45,-16.45
-8.57,0.28,3.04,-18.34,-18.34,-18.69
-8.42,0.45,3.17,-20.93,-20.93,-21.14
-9.05,0.29,3.56,-21.21,-21.21,-21.21
-9.79,-0.37,3.91,-15.96,-14.63,-14.63
-9.74,-0.55,4.06,-0.49,-0.49,-0.49
-9.11,-0.14,3.98,6.86,6.86,7.7
-8.31,0.39,4.02,10.15,10.22,10.22
-7.86,0.75,4.3,7.21,7.21,7.21
-8.46,0.43,4.65,3.43,3.43,3.08
-8.97,-0.23,4.83,3.29,3.29,3.71
-9.17,-0.29,4.92,6.02,6.72,6.72
-7.68,0.36,5.85,15.75,15.89,15.89
-7.35,0.58,6.29,15.61,15.61,15.4
-7,0.84,6.17,12.04,12.04,11.2
-6.7,0.91,5.97,6.16,6.16,6.16
-7.89,0.33,6.42,-6.23,-6.23,-6.23
-8.94,-0.19,6.51,-4.76,-4.76,-4.76
-9.48,-0.33,6.4,-3.99,-4.13,-4.13
-9.23,-0.18,6.19,-4.76,-4.69,-4.69
-8.46,0.15,6.28,-5.04,-5.04,-5.6
-7.55,0.23,6.75,-8.05,-8.33,-8.33
-7.11,-0.19,6.92,-10.43,-10.43,-10.36
-7.36,-0.78,6.76,-9.24,-9.24,-8.96
-7.26,-1.01,6.62,-5.81,-5.81,-5.81
-5.9,-0.84,6.8,-2.8,-2.8,-2.24
-5.15,-0.96,7.33,4.62,4.62,4.62
-4.74,-1.01,7.69,10.71,11.83,11.83
-3.48,0.1,8.44,12.53,11.9,11.9
-3.68,-0.09,8.71,8.82,6.93,6.93
-3.27,0.05,9.04,3.99,3.36,2.24
-3.16,0.09,8.97,-3.22,-3.22,-3.99
-3.31,-0.03,8.93,-9.38,-9.38,-10.01
-3.65,-0.22,9,-14.91,-14.91,-14.91
-3.86,-0.25,8.85,-18.76,-18.76,-18.76
-4.14,-0.19,8.82,-22.96,-22.96,-22.96
-4.32,-0.11,8.39,-26.32,-26.32,-26.32
-4.78,-0.27,8.24,-27.72,-27.72,-27.72
-5.74,-0.78,8.25,-26.18,-26.18,-26.18
-5.84,-0.92,8.18,-23.73,-23.73,-23.73
-5.62,-1.07,8.17,-21.84,-21.84,-21.84
-5.09,-0.93,8.14,-19.81,-19.81,-19.81
-4.44,-0.55,7.91,-19.18,-19.18,-19.18
-4.47,-0.65,7.7,-19.67,-19.39,-19.39
-4.72,-0.99,7.62,-16.66,-15.89,-15.89
-5.03,-1.01,7.37,-9.52,-9.52,-8.54
-5.2,-0.63,6.83,-3.78,-3.78,-2.87
-5.3,-0.31,6.4,-2.38,-2.38,-2.31
-5.37,-0.29,6.13,-0.77,-0.77,-0.35
-6.05,-0.34,5.99,2.17,2.17,2.17
-6.66,-0.09,5.77,6.86,7.35,7.35
-7.1,0.38,5.51,9.59,10.43,10.43
-7.72,0.88,5,11.48,11.41,11.41
-8.33,1.39,4.77,9.52,7.35,7.35
-8.85,1.77,4.43,3.43,2.66,0.7
-9.58,2.47,4.01,-4.97,-6.37,-9.17
-10.36,3.04,3.42,-21.63,-21.63,-23.59
-6.21,1.21,-7.55,-3.15,-3.29,-3.29
-6.19,1.03,-7.31,-3.57,-3.57,-3.57
-6.18,1,-7.35,-0.91,-0.91,-0.91
-6.21,0.89,-7.21,0.84,1.33,1.33
-5.98,0.79,-7.26,3.71,4.62,4.62
-5.91,0.94,-7.39,7.42,7.42,7.42
-5.92,1.08,-7.37,8.75,8.75,8.75
-5.87,1.09,-7.55,9.03,9.03,9.03
-5.86,1.21,-7.68,8.96,8.82,8.82
-6.09,1.24,-7.58,7.63,7.63,7.42
-6.16,1.29,-7.49,5.04,5.04,4.62
-6.09,1.1,-7.72,1.05,1.05,1.05
-6.17,0.9,-7.57,0.91,0.91,0.91
-6.33,0.89,-7.55,1.47,1.47,1.47
-6.25,0.99,-7.73,0.56,0.56,0.56
-6.28,0.91,-7.85,0.28,0.28,0.28
-6.25,0.82,-7.8,1.82,1.82,1.82
-6.16,0.83,-7.92,3.43,3.43,3.78
-6.07,0.87,-8.06,5.11,5.11,5.25
-6.04,1.06,-8.11,5.74,5.74,5.74
-6.18,1.17,-8.16,5.11,4.97,4.97
-6.68,1.36,-8,-3.64,-4.97,-4.97
-6.66,1.38,-7.92,-8.61,-9.73,-9.73
-6.47,1.41,-7.67,-12.74,-12.74,-13.37
-6.33,1.26,-7.45,-14.91,-14.91,-14.91
-6.09,1.09,-7.36,-14.56,-14.42,-13.72
-5.92,0.98,-7.06,-12.18,-11.83,-11.83
-5.78,0.87,-6.97,-8.26,-7.84,-7.84
-5.8,0.96,-7.01,4.41,4.83,4.83
-5.9,1.23,-7.28,6.37,6.37,6.44
-6.05,1.44,-7.27,5.6,5.11,4.76
-6.12,1.44,-7.12,2.8,2.8,2.8
-6.22,1.32,-7.42,-0.14,-0.14,-0.14
-6.41,1.36,-7.49,-1.4,-1.47,-1.47
-6.5,1.37,-7.28,-2.59,-2.59,-2.59
-6.41,1.24,-7.61,-2.8,-2.8,-2.52
-6.29,0.97,-7.67,-0.7,0.28,0.77
-6.25,1.01,-7.47,4.48,4.48,4.83
-6.2,1.07,-7.83,6.3,6.3,6.51
-6.42,1.2,-7.68,7.98,7.84,7.84
-6.35,1.41,-7.91,5.53,5.53,5.04
-6.17,1.5,-8.1,2.52,2.52,2.1
-6.16,1.58,-7.91,-0.49,-0.49,-0.49
-6.2,1.74,-7.96,-4.97,-4.97,-4.97
-6.26,1.62,-8.14,-9.1,-9.1,-9.1
-6.22,1.22,-7.96,-9.03,-9.03,-8.89
-6.41,1.46,-7.37,-9.38,-9.38,-9.38
-6.39,1.5,-7.14,-11.27,-12.11,-12.11
-6.16,1.59,-6.83,-14.56,-15.19,-15.19
-5.8,1.5,-6.56,-16.73,-16.73,-16.73
-5.53,1.36,-6.92,-16.17,-15.89,-15.89
-5.56,1.37,-7.77,-13.58,-13.58,-13.23
-5.37,0.97,-8.31,-9.24,-9.24,-8.19
-5.99,0.89,-9.06,4.06,4.06,4.06
-7.14,1.22,-9.68,10.92,12.32,12.32
-7.94,1.9,-10.44,12.88,12.88,12.6
-9.97,2.28,-10.47,9.38,9.38,9.38
-10.9,2.65,-10.75,0.63,0.63,-0.63
-9.38,1.55,-10.25,-10.29,-10.29,-10.29
-8.22,1.37,-10.01,-7.28,-7.28,-7.28
-6.34,0.03,-8.19,15.75,15.75,17.85
-6.14,-0.06,-7.34,27.72,31.36,32.97
-5.92,0.83,-6.71,40.74,41.72,41.72
-6.13,0.32,-5.89,53.41,53.41,54.74
-6.75,0.21,-5.54,63.21,63.21,63.98
-8.05,0.61,-5.24,68.67,68.67,68.67
-7.87,1.33,-4.62,69.09,69.09,69.09
-7.48,1.44,-4.67,64.89,64.4,64.4
-8.04,1.45,-4.31,62.09,62.09,62.09
-8.47,1.81,-4.01,57.4,56.28,56.28
-8.35,1.95,-4.35,44.73,43.47,43.47
-7.13,2.08,-4.02,34.51,33.46,33.46
-8.02,1.89,-3.05,28.07,28.07,27.44
-9.01,1.33,-3.61,21.42,21.42,20.58
-8.45,1.32,-3.43,16.87,16.87,16.87
-8.77,1.57,-2.17,12.81,12.81,12.81
-8.87,1.01,-2.14,11.27,11.27,11.27
-7.84,1,-1.37,18.41,18.41,18.41
-7.35,1.48,-0.42,20.3,20.51,20.51
-7.85,1.23,0.3,22.96,22.96,26.18
-6.09,1.9,1.28,34.09,34.09,34.09
-5.36,2.01,1.99,34.16,34.16,34.09
-5.82,1.76,2.69,38.71,38.71,38.71
-5.98,2.02,3.46,44.94,44.94,44.94
-7.4,1.37,3.34,50.96,52.22,52.22
-8.7,1,3.33,60.06,65.17,65.17
-9.89,1.56,4.2,71.19,71.19,71.26
-9.77,1.81,4.09,69.86,68.88,68.18
-8.58,2.11,3.7,63.35,63.35,63.35
-7.66,2.46,3.7,56.98,55.51,52.29
-7.77,3.38,4.31,36.68,36.68,34.23
-8.34,3.13,4.56,14.91,14.91,14.91
-8.69,2.46,4.45,6.86,5.32,5.32
-9.2,2.38,4.27,3.01,2.17,2.17
-9.15,2.39,4.36,-1.4,-2.66,-2.66
-8.24,2.34,3.67,-5.39,-5.39,-6.37
-8.51,2.43,3.28,-9.87,-9.87,-11.13
-9.48,2.07,4.1,-14.77,-14.77,-14.77
-9.82,1.96,4.43,-14.42,-14.07,-14.07
-9.47,1.95,4.34,-11.41,-11.2,-11.2
-9.13,1.68,4.23,-10.92,-10.92,-10.92
-8.12,1.79,4.11,-9.52,-9.52,-9.52
-7.42,2.29,4.35,-10.22,-10.22,-10.22
-7.92,2.36,4.68,-14.35,-15.19,-15.19
-8.26,1.99,4.7,-17.85,-17.85,-17.85
-8.29,2.11,4.45,-18.9,-19.46,-19.46
-8.76,2.24,4.74,-27.23,-27.23,-27.23
-8.09,2.33,4.83,-33.53,-33.53,-34.16
-8.03,1.87,4.26,-38.85,-38.85,-38.85
-8.53,1.46,4.13,-43.26,-43.26,-43.26
-8.6,1.36,4.25,-47.04,-47.04,-47.04
-8.79,1.14,3.77,-47.53,-47.53,-47.53
-9.23,0.6,3.39,-46.83,-46.83,-46.83
-9.41,0.13,3.42,-41.93,-41.93,-41.93
-8.96,0.3,3.03,-35.63,-35.21,-35.21
-8.39,0.73,2.62,-34.09,-33.95,-33.95
-8.03,1.01,2.44,-35.98,-36.47,-36.47
-8.91,0.22,2.21,-38.99,-38.99,-38.99
-8.27,0.14,1.27,-35.84,-35.28,-35.28
-7.37,0.74,0.77,-32.62,-32.41,-32.41
-7.74,0.55,0.45,-33.81,-33.81,-34.02
-8.71,0.28,-0.04,-32.2,-32.2,-32.2
-9.83,0.15,-0.11,-22.61,-21.49,-21.49
-10.34,0.41,-0.13,-16.8,-15.05,-15.05
-10.03,0.72,-1.24,-13.23,-12.67,-12.67
-9.82,1.2,-1.9,-12.04,-12.04,-12.04
-9.92,1.76,-1.83,-14,-14,-14
-9.44,2.57,-2.63,-20.37,-20.37,-23.66
-8.92,3.04,-2.61,-37.24,-39.13,-39.13
-8.7,3.03,-2.08,-51.66,-51.66,-51.66
-7.93,3.35,-3.12,-62.44,-63.98,-63.98
-7.68,3.12,-3.36,-78.26,-79.31,-79.31
-7.9,2.96,-2.72,-84.49,-84.84,-84.84
-8.77,2.34,-2.48,-84.7,-83.44,-83.44
-8.7,2.02,-2.39,-80.29,-79.59,-78.26
-7.97,2.07,-1.99,-75.25,-74.76,-74.76
-7.87,1.79,-2.34,-69.51,-68.53,-68.53
-8.31,1.37,-2.52,-55.02,-53.41,-53.41
-8.34,1.54,-1.93,-43.96,-42.77,-42.77
-8.36,1.4,-2.83,-35.56,-34.3,-34.3
-8,1.41,-3.76,-25.48,-23.8,-23.8
-7.83,1.37,-3.67,-10.22,-10.22,-8.82
-8.45,1.53,-4.46,-1.68,-1.68,-0.35
-9.05,1.62,-5.02,11.2,11.2,11.2
-9.36,1.58,-4.63,18.13,19.18,19.18
-9.51,2.05,-5.34,22.89,22.96,23.45
-9.35,2.6,-5.99,23.94,23.87,23.66
-8.74,3.24,-5.79,21,18.83,18.83
-8.57,3.66,-5.45,8.47,8.47,6.65
-7.81,4.12,-5.76,-9.52,-9.52,-9.52
-7.37,4.25,-5.5,-21,-21,-21
-7.03,4.18,-5.47,-35.49,-35.49,-35.49
-5.42,3.97,-7.72,-42.28,-42.28,-42.28
-5.55,3.63,-7.34,-36.4,-36.4,-36.4
-6.35,3.08,-7.07,-28.63,-27.02,-27.02
-7.15,2.66,-7.6,-11.83,-11.83,-11.83
-7.24,3,-8.56,33.6,33.6,35.07
-6.7,3.06,-8.84,43.61,43.61,44.45
-6.72,3.2,-8.02,48.58,48.58,48.58
-6.49,3.22,-8.55,45.22,45.22,45.22
-5.69,3.47,-8.99,41.65,40.32,40.32
-6.35,3.32,-8.34,35.49,34.72,34.72
-6.35,3.15,-7.46,22.96,22.96,21.63
-5.43,3.04,-7.69,14.42,14.42,13.51
-4.58,3.14,-7.79,3.36,3.36,3.36
-4.9,3.12,-7.74,-3.22,-5.39,-5.39
-4.8,3.01,-8.43,-10.99,-10.99,-11.55
-5.13,2.81,-8.28,-13.09,-13.09,-13.09
-5.77,2.82,-7.99,-12.88,-12.81,-12.81
-5.44,2.9,-7.95,-11.27,-10.92,-10.92
-5.11,2.85,-8.2,-7.56,-7,-7
-5.49,2.76,-8.13,-3.15,-2.38,-2.38
-5.53,3.01,-8.9,4.48,4.48,5.25
-4.8,3.24,-9.24,8.82,9.45,9.45
-4.81,3.5,-9.18,13.79,13.79,14.28
-5.56,4.02,-9.52,14.28,14.28,13.93
-5.95,4.54,-9.69,10.99,10.43,10.43
-6.54,5.12,-9.93,3.78,3.78,3.78
-6.62,6.07,-10.84,-9.87,-9.87,-9.87
-6.83,6.78,-11.09,-28.28,-28.28,-28.28
-8.33,6.08,-11.27,-75.32,-75.32,-77.07
-7.7,5.7,-11.39,-90.16,-90.16,-90.16
-6.72,4.97,-11.18,-93.66,-93.66,-93.66
-6.6,5.13,-10.33,-97.51,-97.51,-97.51
-6.12,5.21,-10.05,-108.29,-108.29,-108.2
-4.95,5.02,-10.05,-110.25,-110.6,-110.6
-5.28,4.95,-8.85,-112.14,-112.14,-112.14
-6.35,4.74,-7.91,-113.96,-113.96,-113.96
-6.19,4.52,-7.76,-112.28,-111.37,-111.37
-6.23,4.37,-6.31,-104.23,-104.23,-103.88
-6.58,4.48,-5.97,-102.83,-102.83,-102.76
-6.13,4.17,-4.96,-96.6,-96.6,-96.6
-5.24,4.12,-4.06,-92.19,-92.19,-91.77
-5.73,3.83,-3.05,-91.77,-91.77,-91.77
-5.3,3.43,-1.88,-92.19,-92.19,-92.19
-3.99,3.22,-1.53,-92.54,-92.54,-92.54
-4.83,2.42,-0.8,-88.41,-88.41,-88.41
-6.38,1.46,0.23,-82.53,-80.22,-80.22
-7.62,1.46,0.88,-74.06,-74.06,-72.73
-8.33,1.35,0.87,-67.9,-67.9,-67.9
-8.77,0.53,1.69,-51.73,-51.73,-51.73
-8.38,0.43,1.83,-43.68,-43.68,-43.68
-7.81,0.7,1.66,-40.53,-40.53,-40.32
-6.85,0.58,2.41,-38.08,-38.08,-38.08
-6.76,0.32,2.85,-34.58,-32.97,-32.97
-6.54,0.06,2.9,-29.4,-29.05,-29.05
-6.47,-0.14,3.24,-32.13,-32.83,-32.83
-7.94,0.21,3.77,-36.12,-36.12,-36.19
-8.91,0.22,3.98,-38.71,-38.71,-39.55
-8.6,0.13,4.4,-46.97,-46.97,-48.3
-8.69,0.31,5.01,-54.81,-54.81,-54.81
-8.48,0.13,4.5,-56.91,-57.05,-57.05
-8.15,-0.05,3.97,-59.15,-59.15,-59.71
-7.82,-0.09,4.73,-65.45,-65.45,-65.87
-7.41,-0.44,4.59,-68.32,-68.32,-68.39
-7.9,-1.02,4.39,-67.83,-67.83,-67.76
-7.95,-1.06,5.09,-67.27,-67.27,-67.13
-7.32,-1.45,4.84,-68.04,-68.04,-68.04
-7.26,-1.94,4.89,-67.27,-67.27,-67.27
-7.64,-2.39,5.36,-60.55,-60.55,-60.55
-8.2,-3.42,5.32,-51.94,-51.94,-51.94
-7.97,-3.6,5.45,-43.47,-42.7,-42.7
-8.1,-3.46,5.21,-39.27,-38.78,-38.78
-7.48,-3.7,5.05,-36.26,-35.63,-35.63
-7.19,-3.82,5.09,-27.58,-27.58,-26.53
-7.81,-3.57,5.02,-22.61,-21.77,-21.28
-7.7,-3.41,4.86,-19.11,-19.11,-17.08
-8.01,-3.42,5.02,-10.92,-10.92,-10.01
-8.72,-3.4,4.86,-4.55,-4.55,-4.55
-8.85,-3.3,4.64,0.84,1.19,1.19
-7.74,-3.13,4.88,4.9,5.11,5.11
-7,-3.22,4.72,5.95,5.95,5.95
-6.92,-3.43,4.87,9.24,9.24,9.24
-7.31,-3.52,4.99,16.45,16.45,16.45
-7.48,-3.58,4.77,28.28,28.28,28.28
-7.44,-3.42,4.76,38.29,38.29,38.29
-7.04,-3.18,4.51,46.97,46.97,49.63
-7.39,-2.6,3.8,56.28,56.28,56.28
-8.05,-2.08,3.87,65.24,66.5,66.5
-8.68,-1.93,3.91,76.23,77.7,77.7
-9.09,-1.27,3.21,85.05,85.96,85.96
-8.82,-0.61,2.88,93.1,93.1,94.01
-8.87,0.2,2.64,99.96,99.96,100.59
-8.64,0.67,2.32,103.18,103.46,103.46
-7.81,1.65,2.15,102.76,102.76,102.55
-7.9,2.46,1.73,102.34,102.34,102.13
-7.64,3.21,1.23,95.55,95.55,94.5
-7.94,3.74,1.11,87.57,87.57,86.73
-8.12,4.35,0.65,81.55,81.55,80.5
-8.41,4.8,0.39,68.6,68.6,68.6
-8.98,5.25,0.52,57.19,55.58,55.58
-9.12,4.84,0.07,49.91,49.21,48.86
-9.07,4.63,0.09,45.78,45.78,45.78
-8.07,5.22,-0.13,36.33,36.33,36.33
-7.81,5.19,-1.07,33.18,33.46,34.86
-8.64,4.32,-1.42,45.22,45.22,46.76
-9.17,4.36,-1.04,57.19,58.1,58.1
-7.68,5.11,-1.19,59.78,59.78,59.57
-6.43,5.02,-1.45,58.94,59.43,59.43
-6.56,4.57,-1.69,62.93,62.93,63.77
-7.43,4.93,-1.52,68.18,68.18,68.25
-7.08,5.65,-1.3,65.8,65.8,65.03
-6.53,5.45,-1.74,58.38,58.38,58.38
-6.67,5.71,-2.1,55.58,55.58,55.58
-6.74,5.67,-1.79,51.94,51.94,51.94
-7.34,5.46,-2.41,50.12,50.12,50.12
-8.01,5.86,-2.68,47.53,47.53,47.53
-8.28,6.09,-2.13,38.99,38.99,38.99
-7.95,5.93,-2.44,33.18,31.71,31.71
-7.57,6.15,-3.41,25.9,25.9,24.64
-7.36,6.39,-3.02,15.33,15.33,14.07
-7.07,6.48,-3.79,5.11,5.11,5.11
-6.7,6,-4.54,-1.75,-1.75,-2.66
-6.46,5.33,-4.41,-2.87,-2.87,-2.87
-6.69,5.06,-4.19,0.77,0.77,0.77
-6.92,5.07,-4.66,7.49,7.49,7.49
-6.71,4.95,-4.72,16.94,16.94,16.94
-6.09,5.06,-5.12,25.06,25.06,25.06
-5.64,5.6,-5.83,31.64,33.81,33.81
-5.63,6.18,-6.23,38.71,38.71,39.41
-5.08,6.31,-6.33,40.25,40.25,40.25
-4.69,6.38,-6.82,43.96,43.96,43.96
-5.11,6.55,-6.63,47.6,47.6,48.02
-5.41,6.64,-6.75,46.76,46.76,46.48
-4.69,6.49,-7.05,44.52,44.52,44.52
-4.73,6.49,-6.87,44.66,44.38,44.38
-5.58,6.94,-7.15,41.79,41.79,40.18
-5.35,7.11,-7.68,34.44,34.44,34.44
-4.62,6.72,-7.87,28.42,28.42,28.42
-4.45,6.64,-8.18,28.07,28.07,28.07
-4.59,6.3,-8.37,26.6,26.6,26.6
-4.69,6.12,-7.79,27.02,27.02,27.02
-5.31,6.14,-7.95,27.58,27.44,27.44
-5.54,6.1,-7.74,24.5,24.5,24.5
-3.87,5.5,-7.64,10.36,10.36,10.36
-3.66,5.3,-7.29,5.18,5.18,5.18
-3.36,5.23,-7.15,2.52,2.52,2.52
-2.96,5.14,-7.26,1.54,1.54,1.54
-3.72,5.08,-6.6,2.17,2.17,2.17
-4.02,5.3,-6.47,1.96,1.96,1.96
-3.45,5.5,-6.79,1.19,1.19,1.19
-3.02,5.39,-6.99,1.75,2.38,2.38
-3.35,5.58,-7.1,4.2,4.2,4.62
-3.61,5.96,-7.64,5.18,5.18,5.18
-3.34,6.46,-8.66,3.22,3.22,3.22
-3.55,7.02,-9.11,0.07,0.07,0.07
-4.32,7.74,-10.04,-5.46,-6.44,-6.44
-5.85,8.26,-10.61,-12.81,-17.29,-17.29
-6.86,8.61,-10.84,-25.9,-29.75,-31.64
-7.26,8.46,-11.5,-43.4,-44.59,-44.59
-6.82,8.03,-11.42,-62.79,-62.79,-62.79
-6.37,7.96,-11.33,-73.36,-73.36,-73.36
-5.81,7.55,-11.12,-80.36,-82.18,-82.18
-4.88,6.98,-10.54,-85.96,-85.96,-86.31
-3.91,6.9,-9.98,-89.81,-89.81,-89.81
-4.48,6.25,-8.93,-92.26,-92.26,-92.26
-4.43,5.86,-8.32,-87.99,-87.99,-87.99
-5.13,5.28,-7.44,-81.97,-79.66,-79.66
-6.5,5.11,-6.04,-73.36,-73.36,-71.96
-5.42,5.31,-4.07,-70.49,-70.49,-70.49
-5.19,5.21,-3.68,-75.74,-76.51,-76.51
-5.18,4.67,-3.25,-79.45,-79.45,-79.38
-5,4.5,-2.57,-80.5,-80.5,-82.53
-3.65,4.5,-1.48,-87.85,-87.85,-89.25
-5.22,3.64,-0.89,-95.27,-95.27,-94.85
-6.69,3.62,-0.39,-91.98,-90.93,-90.44
-5.09,3.38,0.7,-89.6,-89.6,-89.6
-4.75,3.15,1.72,-86.17,-86.17,-86.17
-6.25,2.5,2.66,-74.97,-74.97,-74.97
-7.11,2.45,2.76,-77.84,-77.84,-79.17
-7.34,2.44,3.52,-83.58,-84.49,-84.49
-6.71,1.62,3.3,-88.06,-87.64,-87.64
-6.15,1.28,3.49,-85.61,-85.47,-85.47
-5.97,1.25,4.16,-87.08,-87.78,-87.78
-6.52,0.53,4,-93.45,-93.45,-93.45
-7.58,-0.8,4.3,-84.77,-84.77,-82.95
-7.84,-1.03,4.69,-74.76,-73.36,-73.36
-8.41,-1.67,4.43,-66.99,-66.08,-66.08
-9.6,-2.02,4.67,-55.23,-55.23,-53.69
-9.23,-1.79,4.93,-45.78,-45.78,-45.01
-8.02,-1.87,4.42,-42.56,-42.56,-42.21
-7.81,-2.48,4.48,-37.87,-36.26,-36.26
-7.67,-2.62,5.2,-31.92,-31.22,-31.22
-7.34,-2.66,4.84,-31.71,-31.71,-31.99
-6.9,-2.8,4.66,-32.69,-32.69,-32.69
-7,-3,4.54,-31.15,-31.01,-31.01
-7.25,-3.05,4.6,-33.95,-34.93,-34.93
-7.28,-3.01,4.61,-41.86,-41.86,-42.56
-8.54,-3.53,4.64,-45.57,-45.57,-45.57
-9.58,-3.89,4.98,-47.04,-46.97,-46.97
-9.73,-3.79,4.97,-44.38,-44.38,-43.68
-9.43,-3.74,4.81,-37.03,-37.03,-37.03
-9.03,-4.11,5.37,-30.24,-30.24,-30.24
-7.64,-4.31,5.14,-22.54,-21.14,-21.14
-7.75,-4.3,4.58,-10.36,-10.36,-9.17
-8.4,-3.68,4.84,-5.46,-5.46,-3.99
-7.95,-3.41,4.87,-2.38,-2.38,-2.17
-7.76,-3.45,4.32,-0.77,-0.77,-0.49
-7.57,-3.24,4.4,1.68,1.68,2.1
-8.19,-3.02,4.66,2.94,2.94,2.94
-8.33,-2.83,4.64,1.05,1.05,1.05
-8.21,-3.16,4.65,-0.84,-1.05,-1.05
-8.65,-3.46,4.97,0.28,0.77,1.82
-8.46,-3.38,4.95,3.92,4.27,4.83
-7.52,-3.38,5.05,6.79,7.21,7.21
-6.88,-3.57,4.92,13.16,14,14
-6.72,-3.5,4.67,19.04,19.95,19.95
-6.94,-3.26,4.78,26.67,26.67,26.67
-7.28,-3.06,4.21,35.77,36.89,36.89
-8.1,-2.91,3.83,43.47,44.59,44.59
-8.66,-2.8,3.98,53.9,55.37,55.37
-9.15,-2.28,3.62,66.64,66.64,67.48
-8.66,-1.74,3.24,72.24,74.2,75.25
-8.53,-1.18,2.95,80.15,80.15,82.25
-8.77,-0.4,2.86,84.63,84.63,84.91
-8.21,0.15,2.41,86.66,86.66,86.73
-7.71,0.86,2.43,86.52,86.52,86.17
-7.75,1.37,1.81,84.35,84.35,84.35
-8.06,1.52,1.47,83.72,83.51,83.51
-8.98,2.01,1.24,83.3,83.3,83.58
-8.82,2.51,1.14,83.58,83.58,83.58
-8.15,2.75,0.35,79.94,79.94,79.94
-8.15,3.13,-0.26,83.09,83.09,83.09
-8.46,3.62,-0.12,85.61,85.12,85.12
-8.26,4.51,-0.3,78.12,78.12,78.12
-7.62,4.38,-1.23,75.39,77.28,77.28
-7.31,4.63,-1.45,80.78,80.78,80.78
-7.96,5.73,-1.72,74.2,74.2,74.2
-8.12,5.9,-2.11,63.49,63.49,63.49
-8.06,4.77,-2.2,66.85,67.83,67.83
-8.37,5.58,-2.09,67.34,65.87,65.87
-7.7,6.3,-2.34,59.71,57.54,57.54
-6.6,5.22,-2.21,55.58,55.58,55.58
-6.98,4.86,-2.52,62.23,63.7,66.5
-7.39,5.81,-3.32,73.29,74.27,74.27
-6.66,6.25,-3.37,77.35,77.35,77.42
-6.01,5.42,-3.38,79.73,79.73,80.64
-6.49,6.12,-4.03,88.34,88.34,89.04
-6.64,6.2,-3.94,92.61,92.61,93.03
-6.88,5.09,-3.94,97.72,97.72,98.84
-7.9,6.03,-5.62,105.35,105.35,105.35
-9.12,6.87,-5.81,104.79,103.53,103.53
-9.52,6.66,-5.52,98,96.32,96.32
-7.98,6.93,-5.79,74.62,71.96,71.96
-7.57,6.04,-5.36,51.59,51.59,51.59
-6.91,4.92,-6.1,43.19,43.19,43.19
-5.96,4.62,-6.33,41.72,41.72,41.3
-6.07,4.21,-5.83,40.25,40.25,40.46
-5.95,3.49,-5.87,43.82,43.82,43.82
-5.18,3.77,-6.47,48.3,48.65,48.65
-5.61,3.85,-5.96,51.87,51.87,52.22
-6.52,3.76,-6.16,54.53,54.53,54.81
-6.58,3.66,-6.99,56.56,57.75,58.45
-6.66,3.4,-7.37,62.44,64.33,64.33
-7.17,3.16,-7.08,69.79,69.79,70.7
-8.15,4,-6.9,68.39,66.29,66.29
-7.79,4.82,-6.87,56.77,56.77,52.78
-7.24,4.66,-6.52,36.19,36.19,36.19
-7.38,4.47,-6.94,20.44,19.04,19.04
-7.21,4.23,-6.95,11.76,7.49,7.49
-6.9,4.07,-6.85,-0.07,-0.07,-1.05
-6.15,4.23,-8.04,-11.41,-11.41,-11.41
-5.51,4.2,-8.36,-17.36,-18.97,-18.97
-5.72,3.95,-8.27,-21.7,-21.7,-21.7
-6.47,3.77,-9.64,-21.98,-21.98,-21.98
-9.67,3.57,-9.84,-18.2,-18.2,-18.2
-10.41,3.09,-10.24,-13.37,-13.37,-13.37
-11.06,3.17,-10.32,-6.16,-6.09,-6.09
-10.72,3.35,-10.07,-6.72,-6.86,-7.14
-9.6,3.12,-10.78,-6.23,-5.88,-5.88
-8.59,3.49,-10.61,-7.77,-8.54,-8.54
-7.52,3.47,-9.91,-16.66,-17.71,-17.71
-7.32,3.13,-9.38,-22.4,-22.68,-22.68
-7.62,2.76,-8.68,-24.78,-25.9,-25.9
-7.26,2.57,-7.74,-25.62,-25.48,-25.2
-7.41,2.23,-5.28,-17.64,-17.64,-17.64
-6.49,2.35,-3.76,-13.23,-13.23,-13.23
-7.02,2.91,-2.42,-16.1,-16.1,-18.55
-7.24,2.82,-2.87,-24.78,-24.78,-24.78
-6.77,1.8,-1.93,-20.37,-20.37,-20.37
-7.88,1.72,-0.61,-15.05,-15.05,-15.05
-7.1,2.3,-0.5,-7.21,-7.21,-7.21
-6.66,2.73,0.81,-9.38,-10.01,-11.27
4.09,16.85,4.77,-85.33,-85.33,-87.71
-9.36,0.98,1.9,-65.52,-65.52,-65.52
-8.67,1.4,2.29,-56.63,-53.76,-53.76
-6.98,1.84,2.76,-45.71,-45.71,-43.05
-3.46,1.61,2.67,-32.41,-32.41,-32.41
-1.66,2.26,2.77,-20.09,-18.9,-18.9
-2.32,2.27,4.02,-12.67,-12.18,-12.18
-2.5,1.9,4.48,-9.94,-9.94,-9.52
-3.79,1.85,5.34,1.47,1.47,1.47
-4.77,1.4,5.68,11.41,14.42,14.42
-5.36,1.07,5.51,24.92,24.92,26.46
-4.3,2.73,5.88,35.35,35.35,35.84
-5.02,3.64,6.47,33.32,33.32,33.32
-5.12,3.58,7.16,30.31,30.31,31.08
-5.03,4.4,7.44,31.85,31.85,30.59
-5.9,4.51,7.55,22.89,22.89,19.74
-5.58,4,8.11,11.76,11.76,11.76
-6.15,4.46,9.26,5.32,5.32,5.32
-4.82,4.34,9.15,-10.99,-10.99,-11.2
-3.28,4.52,9.64,-8.68,-8.68,-8.68
-3.68,4.32,9.47,-9.87,-10.85,-10.85
-4.26,3.22,10.16,-14.7,-14.7,-14.7
-5.1,3.1,10.48,-12.67,-12.67,-12.67
-5.98,3.34,10.17,-10.78,-10.36,-10.36
-6.15,3.19,9.73,-8.19,-8.19,-6.93
-5.07,3.41,9.48,-1.75,-1.75,-1.75
-4.16,4.02,9.31,4.55,4.55,4.55
-3.66,4.22,9.39,2.31,2.31,2.31
-3.51,4.39,9.6,-5.6,-6.37,-6.37
-3.68,4.59,9.46,-12.25,-13.23,-13.23
-3.89,4.98,9.36,-19.04,-22.61,-22.61
-4.61,4.38,9.62,-27.72,-28.42,-29.54
-5.19,3.93,9.41,-28.84,-28.84,-28.84
-4.65,3.88,9.36,-27.51,-27.44,-27.44
-4.23,3.55,9.68,-26.95,-26.67,-26.67
-4.72,3.28,9.52,-23.94,-23.45,-23.45
-4.19,2.83,9.14,-17.99,-16.94,-16.94
-3.74,2.89,8.76,-10.71,-9.94,-9.94
-4.58,2.93,8.2,-4.34,-4.34,-3.92
-5.3,2.68,7.96,-0.91,-0.91,-0.42
-5.25,3,7.43,3.15,3.15,3.43
-5.72,2.99,7.04,3.43,3.43,3.43
-5.53,2.63,6.75,4.48,5.25,5.67
-6.63,2.72,5.77,3.71,3.71,3.71
-6.11,2.39,5.29,0.63,0.63,0.63
-5.68,2.57,4.95,-0.14,-0.14,-0.14
-6.52,2.23,4.72,-1.33,-1.33,-1.33
-7.42,1.84,4.57,3.92,3.92,3.92
-7.29,2.46,4.23,11.9,12.6,12.6
-7.22,2.65,3.62,14.49,14.49,14.49
-7.47,2.81,3.36,14.77,14.77,14.77
-8.37,2.68,3.04,17.85,18.2,18.2
-8.41,3.07,2.57,18.13,17.78,17.78
-7.01,3.42,1.73,11.76,11.76,11.76
-6.27,3.36,1.43,8.33,8.19,8.19
-7.73,2.98,0.99,7.84,7.84,7.84
-8.45,2.85,0.82,7.91,7.91,7.91
-7.68,2.96,0.61,9.66,9.8,9.8
-7.44,3.26,-0.52,12.18,12.32,12.32
-8.67,3.68,-0.66,10.85,10.85,10.85
-8.96,4.01,-1.23,6.44,6.44,4.76
-8.44,3.94,-2.79,-4.9,-4.9,-4.9
-7.65,3.71,-2.42,-5.46,-5.46,-5.46
-7.45,3.44,-2.94,-3.92,-3.36,-3.36
-7.03,3.05,-3.2,5.6,5.6,6.86
-7.87,2.98,-2.67,15.05,15.05,16.17
-8.66,2.95,-3.27,23.03,23.03,23.03
-8.26,3.06,-4.31,31.78,31.78,31.78
-10.02,3.07,-4.06,39.69,39.69,39.69
-8.8,3.39,-5.36,42.42,42.14,42.14
-8.43,3.62,-4.93,33.88,33.88,33.88
-7.56,3.1,-5.25,23.31,22.54,22.54
-6.18,3.26,-6.65,18.27,18.27,18.27
-6.97,3.74,-6.44,11.13,11.13,9.66
-8.15,3.73,-6.22,-2.66,-2.66,-3.71
-8.11,3.48,-6.57,-6.09,-6.09,-6.09
-8.85,3.58,-5.86,-4.55,-4.55,-4.55
-9.97,3.65,-5.15,-7.28,-8.26,-8.26
-9.09,3.56,-6,-8.75,-8.75,-8.75
-7.42,3.61,-6.46,-3.15,-3.15,-3.15
-5,3.58,-6.79,-0.35,-0.35,-0.35
-4.47,3.61,-7.91,4.06,4.06,4.62
-4.11,3.47,-7.46,9.8,9.8,10.71
-6.45,3.21,-7.04,16.8,16.8,16.8
-7.17,3.12,-7.05,25.9,26.95,26.95
-7.01,3.07,-6.92,32.34,33.32,33.32
-7.48,3.03,-6.72,40.88,40.88,40.88
-7.69,3.29,-6.85,45.57,45.57,45.57
-7.03,3.36,-6.74,45.57,45.57,45.57
-5.79,3.59,-7.2,43.05,40.53,40.53
-4.9,3.84,-8.51,35.42,34.3,32.2
-4.51,4.12,-9.2,24.36,24.36,23.1
-4.95,4.28,-8.85,10.64,10.64,10.64
-6.51,3.91,-8.46,2.66,2.66,2.66
-7.97,3.42,-7.86,1.89,1.89,1.89
-8.68,3.38,-7.59,3.08,3.08,3.08
-8.44,3.26,-7.58,2.24,2.24,2.24
-7.43,3.18,-8.06,4.48,4.48,5.53
-6.02,3.31,-8.29,8.26,8.26,8.26
-5.11,3.5,-9.03,8.4,8.4,8.4
-4.87,3.33,-9.22,8.47,8.47,8.47
-5.44,3.28,-9.28,11.9,11.9,11.9
-6.81,3.45,-9.16,14.84,15.89,15.89
-7.46,3.33,-9.82,19.18,19.18,19.18
-8.14,3.36,-10.7,24.01,24.57,24.57
-9.11,3.84,-10.55,23.45,23.45,22.89
-9.72,3.78,-10.32,19.88,19.88,19.53
-8.03,3.8,-9.92,15.26,15.26,14.49
-6.65,3.87,-9.79,9.45,7.28,7.28
-6.68,3.78,-9.72,1.05,1.05,-16.87
-6.65,3.77,-9.68,-13.02,-13.02,-13.02
-7.23,3.07,-9.29,-20.02,-20.02,-20.02
-8.24,2.54,-9.05,-21,-21,-21
-9.13,2.51,-8.66,-21.63,-21.63,-21.63
-8.93,1.95,-8.22,-20.86,-20.86,-20.86
-8.66,1.55,-7.83,-13.37,-13.37,-13.37
-7.9,1.55,-6.88,-5.67,-4.83,-4.83
-6.37,1.5,-7,0.14,3.78,3.78
-7.3,1.49,-7,13.93,13.93,13.93
-8.83,1.56,-5.14,29.47,29.47,29.47
-9.42,1.4,-4.42,37.8,37.8,39.2
-8.45,1.66,-4.1,49.49,49.49,49.49
-7.28,2,-3.04,54.67,54.67,54.67
-5.42,2.53,-1.82,57.4,57.4,57.4
-3.03,3.06,-1.81,48.23,48.23,48.23
-3.67,2.89,-1.33,43.33,43.33,43.33
-4.63,2.45,0.54,46.34,46.34,46.34
-6.34,2.3,0.71,51.94,51.94,51.94
-6.42,2.59,1.2,60.06,62.72,62.72
-7.14,2.75,2.59,69.58,69.58,70.28
-7.43,2.83,1.98,77.49,77.49,78.61
-4.69,4.01,3.21,82.39,82.39,81.76
-4.64,3.79,3.48,77.91,77.91,77.91
-5.17,3.9,3.8,80.29,80.57,80.57
-5.73,4.14,4.14,77.35,77.35,77.35
-5.77,4.06,3.73,73.57,73.57,73.57
-6.19,4.3,4.47,74.2,74.2,74.2
-5.72,4.19,5.63,69.51,69.51,68.6
-5.24,4.13,6.58,60.9,60.9,60.9
-3.98,4.94,6.64,54.88,52.22,52.22
-3.01,5.25,6.49,41.3,41.3,41.3
-2.68,5.15,6.44,40.88,40.88,40.88
-3.44,5.73,7,42.7,41.51,41.51
-4.2,6.52,8.14,32.41,28.21,28.21
-4.19,6.43,9.01,17.08,17.08,16.1
-5.45,6.27,8.94,11.13,11.13,10.5
-5.9,6.43,8.58,5.53,5.53,5.53
-5.55,6.74,8.55,-0.63,-0.63,-0.63
-5.33,6.93,8.35,-5.81,-5.81,-5.81
-5.88,7,8.37,-12.88,-12.88,-15.75
-4.52,6.77,8.45,-26.88,-26.88,-26.88
-4.34,6.61,8.21,-35.14,-35.14,-36.19
-4.51,6.47,8.16,-45.22,-45.22,-45.22
-4.68,6.36,8.03,-59.92,-59.92,-59.92
-3.86,6.23,7.63,-69.58,-71.12,-71.12
-4.35,5.74,7.49,-79.31,-80.57,-80.57
-4.91,4.79,7.47,-97.58,-99.05,-99.68
-5.12,3.69,7.24,-102.34,-102.34,-102.83
-5.48,3.26,6.93,-102.34,-102.34,-102.06
-5.47,3,6.58,-101.64,-101.64,-101.71
-5.8,2.73,6.17,-101.43,-101.43,-101.43
-6,2.56,5.87,-99.82,-99.82,-99.82
-5.99,1.98,5.45,-98.91,-98.56,-97.86
-5.77,1.21,4.96,-90.16,-90.16,-88.55
-7.43,0.84,4.69,-65.59,-65.59,-65.59
-7.39,0.68,4.42,-54.04,-54.04,-54.04
-7.54,0.59,4.36,-40.74,-40.74,-40.74
-8.02,0.74,4.1,-32.48,-32.48,-32.48
-7.54,1.1,3.53,-24.64,-24.64,-24.64
-7.53,1.21,3.29,-19.6,-19.6,-19.6
-8.33,1.39,2.99,-14.56,-12.6,-12.6
-8.95,1.79,2.52,-10.01,-9.52,-8.89
-8.95,2.04,2.3,-8.12,-8.19,-8.19
-8.47,2.4,1.46,-8.33,-8.4,-8.4
-8.51,2.46,0.84,-8.33,-8.33,-8.4
-8.85,2.47,0.91,-9.73,-9.73,-10.01
-8.62,2.69,-0.15,-13.65,-13.65,-14
-8.1,2.77,-1.06,-14.7,-14.56,-14.56
-8.13,2.78,-1.46,-13.79,-13.79,-13.86
-8.58,2.67,-1.53,-15.75,-15.75,-15.75
-8.37,2.46,-2.63,-14.14,-14.14,-14.14
-8.61,2.87,-2.8,-13.16,-13.51,-13.51
-8.73,3.01,-3.84,-15.47,-15.47,-15.47
-8.36,3.23,-4.09,-15.47,-15.61,-15.61
-8.92,3.58,-3.54,-21.35,-21.35,-21.35
-9.68,3.59,-3.54,-27.58,-27.58,-27.58
-9.42,3.48,-3.66,-31.01,-31.01,-31.01
-9.38,3.43,-3.04,-34.72,-34.72,-34.72
-8.65,3.38,-3.47,-36.96,-37.1,-37.1
-7.99,3.36,-4.5,-34.16,-34.16,-32.34
-7.22,3.35,-4.46,-24.99,-24.99,-24.99
-7.04,3.34,-4.02,-19.53,-19.53,-19.53
-7.51,3.08,-4.31,-13.3,-10.08,-10.08
-7.28,2.91,-4.72,1.33,5.04,5.04
-7.47,3.13,-4.41,13.93,13.93,16.59
-7.7,3.09,-5.03,26.95,28.84,28.84
-7.78,3.15,-6.04,46.34,46.34,48.23
-8.24,3.55,-6.13,56.21,58.45,59.43
-8.71,3.84,-6.06,62.72,62.72,64.26
-8.2,3.87,-6.76,66.08,66.08,66.5
-8.27,4.63,-6.46,65.38,65.38,64.61
-6.57,5.22,-6.63,38.57,35.91,30.66
-4.73,4.73,-7.6,19.81,18.13,14.84
-4.18,4.16,-7.56,8.96,8.12,6.37
-4.92,4.09,-6.92,0.98,-0.35,-0.35
-4.62,4.25,-8.3,-12.32,-13.3,-13.3
-4.93,3.84,-8.56,-16.8,-16.8,-16.8
-6.64,3.48,-8.2,-14.7,-14.7,-14.7
-7.79,3.22,-8.42,-9.59,-9.59,-9.59
-8.23,3,-8.73,2.17,2.17,2.17
-9.09,3.05,-8.45,10.92,10.92,12.18
-8.47,3.35,-8.61,17.22,17.22,17.43
-6.41,3.42,-9.14,17.85,17.85,35.77
-4.79,3.34,-8.66,17.85,17.85,17.85
-4.17,3.46,-8.46,14.63,14.63,14.63
-4.18,3.54,-8.12,9.73,9.73,9.73
-3.62,3.46,-7.76,5.95,4.76,4.76
-3.72,3.32,-7.46,3.01,3.01,2.73
-4.79,3.37,-7.48,2.1,2.1,2.1
-5.9,3.8,-9.28,-4.69,-4.69,-4.69
-6.08,3.97,-9.64,-9.24,-10.57,-10.57
-5.8,4.03,-10.06,-15.12,-16.73,-16.73
-6.37,4.21,-11.23,-21.42,-21.42,-23.1
-7.25,5.05,-12.27,-30.52,-30.52,-31.85
-8.56,4.13,-12.31,-48.16,-48.16,-48.16
-9.21,3.84,-12,-47.39,-47.81,-47.81
-8.93,4.21,-11.39,-52.43,-52.43,-54.74
-7.46,4.23,-11.49,-60.76,-60.76,-60.76
-4.61,3.64,-9.49,-80.71,-80.71,-80.71
-8.14,2.93,-7.28,-67.48,-67.48,-67.48
-8.32,3.21,-6.77,-63.91,-63.63,-63.63
-6.59,3.27,-4.98,-58.45,-58.45,-58.31
-6.86,3.69,-4.59,-62.44,-64.89,-64.89
-5.83,3.43,-4.41,-73.08,-73.08,-75.04
-5.02,3.38,-3.58,-79.73,-79.73,-81.48
-5.39,2.86,-2.3,-85.61,-85.61,-85.75
-5.23,2.2,-1.38,-85.82,-85.82,-85.82
-5.32,1.87,-1.01,-85.19,-85.19,-85.19
-6.4,1.82,-0.28,-82.25,-82.25,-82.25
-6.49,1.23,0.55,-81.34,-81.34,-81.34
-6.12,0.64,0.88,-74.76,-74.76,-74.76
-6.15,0.64,2.07,-60.27,-60.27,-60.27
-6.84,0.28,2.45,-49.14,-49.14,-49.14
-6.62,0.26,2.71,-39.27,-37.94,-37.94
-5.2,0.22,4.1,-28.77,-28.77,-28.77
-3.81,-0.49,4.47,-19.46,-19.46,-19.46
-4.31,-0.69,4.59,-3.29,-3.29,-1.96
-4.25,0.22,5.5,2.52,2.52,2.73
-4.8,0.29,5.58,0,0,0
-5.73,-0.37,5.51,1.89,1.89,1.89
-6.48,0.11,6.25,7.63,7.63,7.63
-4.69,0.73,6.19,5.46,5.46,5.46
-3.68,0.96,6.02,-4.55,-5.53,-5.53
-3.19,1.52,6.65,-10.01,-12.6,-12.6
-4.29,1.59,7.45,-35.14,-18.13,-20.37
-5.15,1.75,7.47,-28.07,-29.05,-29.05
-6.02,1.85,8.37,-35.49,-36.33,-36.33
-5.72,1.43,8.96,-41.51,-42.07,-42.07
-4.88,0.65,9.29,-43.96,-43.96,-43.96
-3.72,0.29,9.59,-43.47,-42.28,-42.28
-2.39,-0.09,9.66,-39.97,-39.69,-39.13
-0.88,-0.82,9.46,-38.36,-38.43,-38.43
-2.73,-2.07,10.72,-32.2,-30.59,-30.59
-2.24,-2.46,11.49,-15.19,-12.88,-12.88
-1.1,-2.19,10.89,0.14,0.14,1.33
-3.45,-2.11,11.25,6.93,6.93,7.7
-3.69,-2.23,11.98,12.88,15.82,17.43
-3.73,-2.64,12.02,25.9,25.9,27.44
-4.91,-2.27,12.14,38.29,38.29,39.41
-3.83,-1.72,12.43,48.58,48.58,49.77
-2.15,-1.08,11.54,53.83,53.83,53.69
-0.61,-0.63,11.34,51.59,51.59,50.96
-0.33,0.13,12.33,47.6,47.6,47.6
0,0.77,12.49,43.89,43.89,43.89
-1.12,1.27,12.09,33.18,33.18,33.18
-1.63,1.88,11.99,22.54,19.04,19.04
-2.4,1.67,12.11,9.66,9.66,7.35
-3.63,1.28,12.24,1.96,1.96,1.96
-3.68,1.04,12.28,-3.08,-3.08,-3.08
-2.14,0.76,11.62,-4.2,-4.27,-4.27
-1.38,0.29,10.6,-3.01,-2.1,-2.1
-1.44,0.6,10.7,0.56,1.05,2.1
-1.89,0.73,10.77,3.57,3.64,3.64
-2.8,0.65,10.06,3.85,3.5,3.5
-3.56,0.79,10.3,2.24,2.24,2.24
-3.68,0.81,10.38,4.83,4.83,4.83
-3.72,0.84,9.95,10.29,10.29,10.29
-3.85,0.94,9.79,11.34,11.69,11.69
-3.96,1,9.58,14.84,14.84,14.84
-4.9,0.77,8.99,20.44,20.44,20.44
-4.48,0.39,8.79,25.06,25.06,26.04
-4.55,0.68,8.5,34.44,34.44,34.44
-5.07,0.75,7.88,42.07,42.07,42.07
-5.11,0.91,7.64,46.9,46.9,46.9
-4.2,1.5,7.37,51.24,51.24,51.24
-4.07,1.59,6.66,53.48,53.48,53.48
-4.93,1.8,6.43,55.23,55.23,55.72
-6.26,2.23,6.64,57.19,57.19,57.19
-5.97,2.4,6.05,57.61,57.61,57.61
-5.6,2.67,5.57,54.46,54.46,54.46
-5.95,2.87,5.65,50.68,50.26,50.26
-6.65,2.6,5.51,50.19,50.19,50.4
-6.43,3.16,4.85,48.72,48.09,48.09
-5.97,3.68,4.55,42.07,42.07,41.65
-6.03,3.36,4,39.55,39.34,39.2
-6.01,2.75,3.59,39.69,40.25,40.53
-6.47,2.88,3.54,42.91,44.03,44.66
-7.05,2.77,2.99,47.95,49.35,49.98
-6.69,2.78,2.62,53.34,54.53,54.53
-6.51,3.42,1.92,58.03,58.94,59.29
-7.22,3.52,1.33,60.48,60.55,60.55
-7.71,3.46,0.97,61.74,61.74,61.95
-7.77,3.86,0.33,63.84,63.84,63.84
-7.4,4.07,0,63.49,62.65,62.09
-7.35,3.87,-0.48,58.94,58.94,57.4
-8.16,4.18,-1.66,55.09,55.09,55.09
-8.37,4.5,-1.91,55.3,55.16,55.16
-8.68,4.57,-1.98,51.94,51.03,51.03
-8.75,4.32,-2.8,43.26,43.26,43.12
-8.23,3.91,-3.09,44.03,44.03,44.03
-8.31,3.67,-2.86,45.92,45.92,45.92
-8.59,3.95,-4.02,42.91,42.63,42.63
-8.36,4.34,-5.47,42.28,42.49,42.49
-8.27,4.25,-5.8,42.49,42.07,41.86
-8.54,3.82,-5.31,40.25,40.25,39.69
-8.64,3.26,-4.43,39.41,39.41,39.41
-7.94,3.44,-3.97,45.15,45.15,45.15
-7.22,3.42,-4.51,40.6,40.6,40.6
-7.47,3.15,-5,39.27,39.27,39.27
-6.99,3.35,-5.3,39.13,38.43,38.43
-6.24,3.68,-5.53,34.23,32.62,32.62
-6.08,3.33,-5.75,29.12,29.12,28.98
-7.03,3.33,-5.77,37.94,38.15,38.43
-7.22,3.51,-6.61,40.53,41.02,41.02
-7.67,3.96,-6.8,44.17,44.17,44.1
-7.27,3.85,-6.87,31.71,31.71,31.71
-7.34,3.43,-6.77,33.11,33.11,33.11
-7.65,3.42,-6.69,35.42,35.56,35.56
-7.63,3.51,-7.8,34.3,33.95,33.6
-7.27,2.98,-8.38,34.44,35,35
-7.34,2.75,-8.5,39.62,40.18,40.18
-7.85,3,-9.31,41.3,41.3,41.3
-8.3,2.85,-10.08,40.6,40.6,40.6
-9.22,2.46,-9.83,42.21,42.21,42.49
-9.38,2.55,-10.5,43.12,43.12,42.98
-9.73,2.89,-11.1,37.59,37.59,37.59
-10.73,2.59,-10.68,32.06,32.06,32.06
-10.41,2.4,-11.17,24.78,24.08,24.08
-9.49,2.38,-11.3,18.69,17.85,17.85
-8.81,2.32,-10.54,9.59,9.59,8.4
-8.48,2.08,-9.5,-2.03,-2.03,-3.08
-7.74,2.03,-8.74,-11.34,-11.34,-12.6
-6.5,2.04,-8.6,-19.25,-22.19,-22.19
-6.39,2.28,-7.92,-31.92,-31.92,-53.2
-7.98,2.04,-7.37,-46.83,-46.83,-46.83
-8.39,1.74,-6.81,-55.72,-55.72,-55.72
-7.96,1.66,-6.33,-59.36,-59.36,-59.36
-8.45,1.51,-5.81,-62.65,-63.21,-63.21
-9.04,1.55,-4.99,-67.83,-67.83,-68.46
-6.35,1.67,-4.68,-71.19,-72.1,-72.45
-5.89,1.47,-4.3,-73.15,-73.15,-72.66
-6.94,1.33,-3.26,-70.42,-70.42,-69.79
-8.6,1.39,-2.4,-65.59,-65.59,-63.91
-8,1.6,-1.77,-58.38,-58.38,-56.35
-7.79,1.84,-1.1,-48.79,-48.79,-48.79
-8.37,1.91,-0.25,-38.01,-38.01,-38.01
-7.69,2.75,1.19,-18.76,-18.76,-18.76
-5.57,3.04,1.62,-9.94,-8.82,-8.82
-5.56,3.13,2.15,-0.63,0.98,0.98
-5.16,3.24,3.25,10.08,10.08,11.69
-4.13,3.99,4.17,12.39,12.39,12.53
-4.14,3.63,4.64,15.96,15.96,16.87
-5.36,3.02,5.41,25.69,25.69,27.16
-5.32,3.03,5.52,40.25,40.25,42.49
-5.46,3.23,5.27,54.81,54.81,54.81
-5.93,3.06,5.68,63.84,65.59,65.59
-4.26,3.35,5.6,68.18,68.18,68.18
-3.31,3.75,5.29,72.8,72.8,72.8
-3.67,4,5.55,70,70,70
-4.38,4.39,5.82,62.02,62.02,62.02
-3.59,5.03,5.65,58.52,58.52,58.52
-4.03,5.05,6.32,54.88,53.83,53.83
-3.86,5.15,6.97,44.17,43.47,43.47
-3.24,5.69,6.93,40.18,40.18,39.62
-3.12,5.98,7.07,35.63,33.95,32.97
-3.18,5.83,6.96,30.59,30.59,30.94
-3.21,5.85,6.99,35.21,35.21,36.33
-2.93,6.5,7.38,41.51,41.51,41.16
-2.04,6.93,7.81,37.03,37.03,37.03
-1.88,7.65,8,38.01,38.01,38.01
-2.56,8.13,8.29,34.51,34.51,34.51
-1.43,8.55,8.15,25.2,25.2,25.2
-0.73,8.67,8.24,18.34,18.34,17.29
-1.5,8.71,8.13,10.57,10.57,10.57
-2.26,8.61,7.93,-3.08,-3.08,-3.08
-2.4,8.63,8.13,-12.46,-12.46,-14
-2.68,8.49,8.33,-25.69,-25.69,-25.69
-2.23,7.44,8.14,-40.39,-41.02,-41.02
-2.17,7.44,8.45,-48.58,-48.58,-49.35
-2.48,6.98,8.82,-54.46,-54.46,-54.81
-2.18,6.42,9.14,-55.3,-55.3,-55.09
-2.07,6.04,9.28,-58.17,-58.17,-58.17
-2.32,5.84,9.24,-56.42,-55.93,-55.93
-2.61,5.19,9.22,-54.04,-54.04,-53.34
-3.35,4.6,9.4,-49.28,-49.28,-49.28
-3.26,4.35,9.09,-40.81,-39.9,-39.9
-3.13,3.97,8.77,-18.2,-35.63,-35.63
-3.58,3.76,8.53,-30.87,-29.82,-29.82
-3.87,3.82,8.17,-25.69,-24.15,-24.15
-4.02,3.59,7.84,-23.1,-23.24,-23.24
-4.18,3.46,7.6,-22.96,-21.77,-21.77
-4.74,3.52,7.19,-18.2,-17.36,-15.68
-5,3.51,6.7,-13.09,-12.74,-12.53
-4.46,3.68,5.98,-12.88,-12.6,-12.6
-4.57,3.78,5.49,-11.41,-11.41,-11.41
-6.08,3.68,4.64,-12.53,-12.6,-12.6
-5.57,4.08,4.1,-13.58,-13.58,-13.58
-5.26,3.88,3.65,-16.73,-17.85,-17.85
-6.13,3.68,3.31,-19.04,-19.04,-19.04
-7.01,4.1,3.25,-17.5,-17.5,-17.5
-6.58,4.1,2.03,-24.36,-24.36,-24.36
-6.71,4.02,1.82,-21.07,-19.32,-19.32
-7.24,3.88,1.77,-15.47,-14.84,-13.23
-7.76,4.09,1.06,-7.56,-6.51,-6.51
-7.31,4.15,0.51,0.49,1.4,1.4
-8.05,4.05,-0.31,10.22,10.22,11.06
-8.19,3.97,-0.68,19.74,19.74,19.74
-8.21,4.45,-0.63,21,21,21
-8.37,4.63,-1.25,16.45,16.45,16.45
-8.48,4.52,-2.47,14,14,14
-8.64,4.44,-2.42,13.3,12.88,12.88
-8.8,4.43,-2.27,8.19,7.28,7.28
-8.73,4.31,-2.29,0.35,0.35,-0.28
-8.32,4.2,-2.25,-2.59,-3.43,-3.43
-8.24,4.24,-2.83,-7.21,-8.61,-8.61
-8.2,4.22,-3.6,-12.04,-12.6,-12.6
-8.15,4.21,-3.46,-13.72,-13.72,-14.14
-8.32,4.04,-3.13,-15.96,-15.96,-16.52
-8.84,3.57,-3.28,-16.03,-16.03,-15.05
-8.52,3.19,-3.32,-7.28,-7.28,-7.28
-8.42,3.16,-2.85,0.63,1.05,1.05
-8.15,3.38,-3.35,3.43,4.62,4.62
-7.7,3.48,-4.22,7.42,8.12,9.52
-7.59,3.59,-4.28,12.6,13.16,13.16
-8.05,3.49,-4.37,17.99,18.55,18.55
-8.04,3.46,-4.9,24.43,24.43,24.43
-7.9,3.64,-5.11,30.17,31.15,31.15
-8.05,3.85,-4.62,36.33,36.47,36.47
-7.94,3.87,-4.82,37.8,38.08,38.08
-7.7,4.08,-5.25,38.85,39.62,39.9
-7.55,4.5,-5.14,40.81,40.6,40.18
-7.48,4.61,-4.84,37.38,36.75,36.75
-6.83,4.66,-6.5,31.71,31.57,31.57
-6.69,4.57,-6.92,30.17,29.75,29.75
-7.46,4.41,-6.89,24.36,24.36,23.94
-7.69,4.26,-6.79,21.42,21.42,21.07
-7.49,4.08,-6.4,16.87,16.87,16.87
-7.22,3.91,-7,12.95,12.88,12.88
-6.65,4.13,-7.68,12.18,12.18,11.97
-5.76,4.45,-7.93,8.54,8.54,7.91
-5.62,4.49,-8.04,3.85,3.85,3.85
-6.29,4.44,-8.43,1.89,1.89,1.89
-6.77,4.56,-8.46,-1.54,-1.54,-1.54
-7.02,4.99,-9.27,-5.74,-5.74,-5.74
-6.79,5.56,-10.59,-10.08,-10.78,-10.78
-7.14,5.73,-10.9,-35.07,-18.06,-18.06
-9.01,5.89,-11.31,-23.87,-25.06,-25.06
-10.37,6.09,-11.32,-34.65,-36.05,-36.05
-10.8,5.66,-10.92,-48.23,-48.23,-49.42
-10.66,5.81,-10.72,-57.68,-57.68,-59.29
-9.85,5.88,-10.26,-80.08,-80.08,-80.08
-8.03,5.69,-10.14,-95.13,-95.13,-99.75
-6.03,5.2,-9.99,-112.42,-112.42,-112.42
-5.26,4.91,-9.4,-128.38,-128.38,-128.38
-5.39,4.79,-8.33,-141.12,-141.12,-141.12
-6.49,3.98,-6.96,-140.77,-140.77,-140.77
-8.05,3.54,-5.42,-135.94,-135.94,-135.59
-8.81,3.8,-4.41,-133.35,-133.35,-133.35
-7.82,3.95,-4.35,-127.33,-127.33,-127.33
-6.6,3.08,-3.29,-122.08,-121.38,-121.38
-6.34,2.64,-1.83,-118.51,-118.51,-118.51
-6.29,3.1,-0.82,-122.85,-123.83,-123.83
-5.18,2.81,-0.46,-127.12,-127.54,-127.54
-4.93,1.4,0.46,-124.88,-123.83,-121.31
-5.95,0.71,1.7,-110.67,-110.67,-109.27
-5.9,0.83,2.2,-103.67,-103.67,-103.46
-6.02,0.65,2.51,-103.11,-103.11,-102.62
-6.66,-0.14,3.27,-91.56,-73.64,-88.76
-6.53,-0.72,3.76,-67.41,-67.41,-67.41
-6.67,-0.93,3.76,-61.39,-61.39,-61.39
-6.65,-0.71,4.56,-52.5,-52.5,-52.5
-7.03,-0.7,4.86,-41.58,-40.53,-40.53
-6.85,-0.4,4.78,-39.13,-40.11,-40.67
-6.24,-0.24,5.2,-45.57,-46.13,-46.13
-4.83,-0.03,5.25,-52.5,-52.5,-53.62
-4.25,-0.17,4.98,-62.65,-62.65,-64.4
-5.24,-0.62,6.05,-75.18,-75.18,-75.18
-5.31,-1.25,6.51,-75.18,-74.62,-74.62
-6.19,-1.47,4.93,-74.97,-74.97,-76.09
-6.65,-1.62,6.19,-80.15,-80.15,-80.15
-6.48,-2.19,7.04,-79.59,-79.59,-79.59
-6.62,-2.87,6.27,-78.54,-78.89,-78.89
-5.54,-3.46,6.92,-77.14,-77.14,-75.88
-5.79,-4.19,6.75,-69.58,-67.27,-66.36
-5.79,-4.55,6.35,-63,-63,-61.88
-5.72,-4.97,7.37,-59.71,-59.71,-59.71
-5.35,-5.47,7.33,-51.66,-51.66,-51.66
-4.92,-5.79,6.98,-46.06,-46.06,-46.06
-4.85,-5.92,6.56,-42.21,-42.21,-42.21
-4.75,-6.63,6.88,-39.9,-39.9,-39.2
-4.68,-7.26,6.96,-34.16,-32.9,-32.9
-5.47,-8,7.01,-29.96,-29.96,-29.05
-5.67,-8.36,7.61,-24.78,-23.94,-23.94
-6.4,-8.03,6.85,-14.91,-14.14,-14.14
-7.21,-8.01,6.73,-8.68,-7.91,-7.91
-5.57,-7.99,6.95,-2.8,-1.89,-1.89
-4.92,-7.48,6.5,5.81,6.23,6.23
-5.78,-7.44,6.59,8.12,8.54,8.54
-4.71,-7.43,7.23,11.97,12.67,12.67
-4.12,-7.18,7.28,13.72,13.72,13.72
-5.41,-7.09,7.18,10.71,10.5,10.5
-5.52,-6.82,7.85,9.03,8.75,8.75
-5.45,-6.9,7.76,7.49,6.72,6.72
-5.9,-7,7.11,6.72,7.14,7.14
-5.47,-7.01,7.24,9.1,9.45,9.45
-4.92,-7.06,7.12,11.62,13.3,13.3
-4.73,-6.83,6.95,18.9,18.9,18.9
-4.64,-6.72,6.95,28.21,28.21,28.21
-4.77,-6.46,6.85,37.66,38.78,38.78
-5.16,-5.89,6.14,44.87,48.65,48.65
-5.99,-5.43,5.69,54.88,56.14,56.14
-6.12,-4.8,5.9,66.64,67.9,67.9
-6.83,-4.15,5.34,75.81,76.93,76.93
-6.89,-3.64,4.7,84.07,84.98,84.98
-6.86,-3.35,4.89,90.23,90.23,90.23
-7.35,-2.67,5.09,97.16,98,98
-6.61,-1.95,4.44,102.83,102.83,102.83
-6.22,-1.23,3.94,104.51,104.58,104.58
-6.49,-0.88,3.97,104.58,104.72,104.72
-6.53,-0.37,3.71,105.77,105.77,106.12
-6.61,0.11,3.46,110.67,110.67,110.67
-7.01,0.08,3.29,118.72,118.72,120.05
-7.49,0.76,2.79,125.51,125.65,125.65
-7.13,2,2.26,123.41,123.41,123.41
-6.76,2.12,1.92,123.69,124.32,124.32
-6.88,1.9,1.63,128.94,131.18,131.18
-7.64,3.13,1.09,132.65,132.79,132.3
-7.21,4.22,0.54,127.26,127.26,126.14
-7.09,3.82,0.15,119.98,119.98,119.98
-7.76,4.58,-0.3,118.02,117.11,117.11
-7.88,5.23,-0.66,111.16,110.04,110.04
-7.43,4.49,-0.83,104.3,104.3,103.95
-8.13,5.84,-1.52,100.52,100.52,99.33
-8.68,6.71,-1.66,85.61,85.61,80.15
-7.97,6.53,-1.44,63.35,63.35,58.8
-7.27,5.34,-2.19,52.99,52.99,52.99
-7.49,5.9,-2.14,46.41,46.41,46.41
-6.62,5.87,-2.38,37.45,37.45,37.45
-6.04,5.26,-2.89,37.03,37.8,37.8
-6.42,4.46,-3.07,48.37,48.37,53.34
-6.88,4.86,-3.39,64.89,64.89,64.89
-6.73,5.75,-4.45,79.59,79.59,79.59
-6.69,5.59,-4.68,86.31,88.62,88.62
-7.05,4.79,-4.65,98.28,98.28,99.96
-7.4,4.93,-5.81,113.89,113.89,113.89
-6.87,5.11,-7.51,127.4,127.4,127.4
-7.46,5.8,-8.29,121.87,121.87,121.87
-8.16,5.73,-8.16,104.86,104.86,104.86
-8.8,5.41,-7.67,93.03,91,91
-8.09,5.1,-8.03,73.43,73.43,71.68
-7.87,4.35,-6.8,46.9,45.15,45.15
-5.93,3.32,-7.09,19.46,19.46,19.39
-5.58,2.91,-6.69,20.65,20.65,20.65
-6.6,2.88,-6.3,28.98,28.98,28.98
-8.06,3.3,-7.84,27.44,27.44,27.44
-9.22,3.6,-8.44,28.42,27.86,27.86
-10.29,4.04,-9.17,23.59,20.58,20.58
-10.45,4.03,-10.31,15.68,12.18,12.18
-10.3,4.29,-10.23,0.56,0.56,0.56
-11.19,4.07,-10.01,-19.18,-19.18,-19.18
-10.59,3.82,-10.06,-31.57,-31.57,-31.57
-9.62,3.28,-8.13,-55.72,-57.05,-57.05
-9.45,2.87,-7.59,-64.75,-66.08,-66.57
-6.38,2.42,-7.01,-68.18,-68.18,-68.18
-5.61,2.56,-5.58,-68.46,-68.46,-68.95
-6.77,2.33,-4.49,-72.38,-72.8,-72.8
-6.91,1.45,-3.4,-68.81,-68.81,-64.12
-5.13,1.23,-2.46,-55.58,-55.58,-53.9
-4.41,1.36,-1.33,-39.27,-39.27,-37.66
-5.82,1.63,-0.5,-27.37,-27.37,-25.83
-5.9,3.51,-0.4,-1.68,-1.68,-0.98
-8.1,4.15,-0.44,3.78,3.78,4.48
-9.63,4.69,-0.24,6.44,6.44,6.44
-9.01,5.45,-0.73,1.89,1.89,1.89
-9.63,5.57,-0.32,-0.77,-2.73,-2.73
-8.31,6.15,-0.71,-12.88,-12.88,-14.56
-6.73,6.44,-1.25,-30.38,-30.38,-30.38
-6.81,6.23,-0.86,-42.07,-42.07,-42.07
-8.48,5.97,-0.68,-49.14,-51.38,-51.38
-8.81,6.07,-1.17,-57.89,-60.13,-60.13
-9.15,6.09,-1.03,-66.01,-67.69,-67.69
-9.39,5.68,-2.39,-69.93,-69.93,-70
-10.05,5.33,-1.65,-68.39,-67.9,-67.9
-10.48,4.97,-1.21,-67.2,-67.41,-67.41
-8.94,4.76,-1,-71.33,-71.33,-71.33
-7.34,4.16,-0.42,-70.14,-70.07,-70.07
-6.72,3.33,0.57,-70.63,-70.63,-70.7
-5.81,3.45,1.18,-72.52,-72.52,-72.52
-4.62,2.68,2.25,-76.02,-76.02,-76.02
-4.28,1.2,3.05,-71.05,-71.05,-71.05
-3.18,0.57,3.55,-55.3,-55.3,-55.3
-2.13,0.85,4.38,-41.16,-41.16,-41.16
-2.84,1.32,5.33,-38.22,-38.22,-38.22
-2.68,1.77,5.84,-35.91,-33.88,-33.88
-2.03,2.05,6.07,-25.97,-25.97,-23.94
-1.95,1.22,7.11,-20.51,-19.95,-19.95
-2.12,0.49,7.81,-10.43,-10.43,-10.43
-0.62,1.19,8.55,8.12,8.12,8.12
-0.66,1.85,9.49,11.2,11.2,11.27
-0.39,1.84,10.6,15.61,17.29,17.29
1.79,2.23,10.95,27.51,33.04,33.04
1.11,3.04,11.99,38.43,38.43,38.43
0.45,3.9,13.47,39.62,40.46,40.46
0.56,4.61,13.58,44.59,44.59,43.96
-0.43,4.64,13.46,38.85,38.85,37.45
-0.04,5.18,13.33,27.37,27.37,27.37
1.6,5.73,13.05,18.2,18.2,18.2
1.75,6.15,12.65,6.86,6.86,6.86
2.04,6.14,12.47,-8.89,-8.89,-8.89
1.34,6.06,12.54,-18.83,-20.3,-20.3
0.07,5.58,12.55,-30.52,-30.52,-31.15
-0.78,5.25,11.95,-33.81,-33.81,-34.16
-0.99,5.22,11.8,-36.33,-36.33,-36.54
-0.26,4.81,11.48,-36.96,-36.96,-36.68
0.05,4.29,11.16,-32.41,-32.41,-32.41
0.51,4.4,11.09,-32.41,-32.41,-32.41
0.34,3.65,11.07,-33.6,-33.6,-33.6
-0.02,2.93,10.68,-25.69,-24.43,-24.43
-0.07,2.93,10.4,-18.97,-18.48,-18.48
-0.53,2.53,9.93,-17.01,-17.01,-15.75
-1.64,2.12,9.52,-10.57,-9.38,-9.38
-2.73,2.25,8.97,0.21,0.21,0.21
-3.58,2.35,8.47,3.64,3.64,3.64
-3.3,2.39,8.22,4.13,4.13,4.13
-3.39,2.54,8.05,4.48,4.48,4.48
-4.19,2.32,7.17,5.88,5.95,5.95
-3.8,2.83,6.83,2.8,2.8,2.8
-4.65,2.54,6.13,0,-0.35,-0.35
-5.26,2.29,5.9,-0.49,-0.28,-0.28
-5.95,2.16,5.66,4.55,4.55,5.18
-6.27,2.4,5.08,7.98,7.98,8.12
-5.95,2.52,4.35,10.22,10.22,10.22
-6.33,2.53,4.09,13.93,13.93,13.93
-6.64,2.68,3.28,20.51,20.51,20.51
-7.12,3.03,2.72,19.04,19.04,19.04
-6.72,3.39,2.47,17.08,17.08,16.17
-7.47,3.85,0.99,-7.42,-7.42,-7.42
-7.39,3.96,0.83,-14.77,-14.77,-14.77
-7.55,3.93,-0.19,-20.86,-20.86,-20.86
-8.48,3.82,-0.51,-20.58,-20.58,-20.58
-9.01,3.89,-0.11,-14.77,-14.77,-14.77
-8.79,4.15,-0.92,-12.74,-12.74,-12.74
-8.36,4.11,-1,-11.41,-11.41,-11.41
-7.94,3.93,-0.83,-9.24,-8.89,-8.89
-7.92,3.97,-1.76,-4.06,-4.06,-3.43
-7.49,4.1,-2.12,0.07,0.07,0.07
-6.53,4.28,-2.03,0.63,0.63,0.63
-6.42,3.98,-2.77,0.56,0.56,0.56
-6.87,3.65,-3.56,7.49,8.96,8.96
-7.09,3.44,-3.61,20.09,21.56,21.56
-7.78,3.18,-3.67,31.78,32.9,32.9
-8.42,3.13,-4.14,40.95,40.95,40.95
-8.47,3.03,-3.84,54.74,54.74,54.74
-8.38,2.9,-3.9,59.15,59.71,59.71
-7.25,3.75,-5.19,67.76,67.76,67.76
-6.93,3.63,-5.91,64.61,64.54,64.54
-5.92,4.03,-6.97,64.26,64.26,64.26
-5.71,4.57,-7.04,61.95,61.95,61.95
-5.87,4.51,-7.46,54.6,54.04,54.04
-5.69,4.39,-8.69,53.2,53.97,53.97
-5.89,4.22,-9.55,57.68,57.68,58.24
-6.82,3.78,-9.16,62.86,62.86,63.35
-7.54,3.92,-8.71,64.4,64.4,64.61
-7.64,4.13,-8.48,64.47,64.47,64.47
-7.87,4.01,-8.06,62.93,62.93,62.58
-6.95,4.28,-8.9,57.33,57.33,56.49
-5.7,4.64,-9.18,50.61,50.61,49.21
-4.54,4.68,-8.97,38.57,36.96,36.96
-4.16,4.47,-8.64,22.33,22.33,20.72
-4.17,4.36,-8.3,11.06,11.06,9.87
-4.49,4.45,-7.83,2.17,2.17,0.7
-4.7,4.47,-8.13,-11.76,-11.76,-11.76
-4.61,4,-8.55,-16.38,-16.38,-16.38
-4.7,3.4,-8.52,-12.25,-12.25,-12.25
-5.78,3.35,-8.26,-7.35,-7.35,-7.35
-6.26,3.4,-8.38,-4.2,-4.2,-4.2
-5.89,3.25,-8.31,0.07,0.63,0.63
-5.91,2.97,-7.96,4.76,4.76,5.46
-5.69,3.01,-8.13,9.52,9.52,9.52
-5.37,3.13,-8.32,10.99,10.99,10.99
-4.77,2.99,-8.2,10.36,10.43,10.43
-4.21,3.02,-8.6,10.92,10.92,10.92
-4.73,3.28,-8.82,9.45,8.96,8.96
-4.79,3.78,-8.84,5.67,4.76,4.76
-4.81,4.87,-9.39,-3.15,-4.62,-4.62
-5.02,5.56,-10.64,-18.97,-21.14,-21.14
-6.38,5.6,-10.99,-35,-36.75,-36.75
-6.96,5.35,-11.52,-48.79,-48.79,-50.26
-7.33,4.96,-12.39,-59.08,-59.08,-60.13
-8.54,4.46,-12.36,-62.65,-62.65,-62.65
-9.54,4.09,-11.8,-59.85,-59.5,-59.5
-8.99,3.94,-11.88,-58.38,-57.89,-57.89
-7.77,3.57,-11.45,-55.65,-55.65,-54.81
-7.22,3.11,-10.22,-52.78,-52.78,-52.78
-6.36,3.18,-8.82,-56.07,-56.07,-56.07
-5,3.2,-8.04,-61.11,-61.11,-61.95
-4.56,2.99,-6.81,-67.83,-67.83,-69.58
-5.26,2.85,-5.99,-74.76,-74.76,-76.44
-5.97,2.92,-5.35,-81.76,-81.76,-81.76
-6.2,3.05,-4.75,-88.41,-88.41,-88.41
-6.39,3.23,-4.68,-92.05,-92.05,-92.05
-7.28,3.12,-4.29,-88.41,-88.41,-88.41
-8.03,2.89,-3.34,-81.48,-81.48,-81.48
-8.53,3.19,-3.39,-76.58,-76.58,-76.58
-8.18,3.79,-3.44,-75.11,-74.55,-74.55
-7.24,3.48,-2.55,-71.68,-71.68,-70.98
-7.69,3.18,-2,-62.86,-62.86,-62.86
-7.78,2.9,-1.37,-57.61,-56,-56
-6.59,2.3,-0.51,-52.92,-52.92,-52.22
-5.44,1.9,-0.24,-48.79,-48.79,-48.79
-5.56,1.18,0.61,-40.11,-40.11,-40.11
-5.27,0.72,1.51,-31.78,-31.78,-31.78
-4.76,0.47,1.67,-24.99,-22.68,-22.68
-4.08,0.29,2.73,-15.82,-15.82,-14.98
-3.61,-0.84,3.78,-4.69,-4.69,-4.69
-4.94,-0.93,4.32,8.61,8.61,8.61
-5.25,-0.75,5.24,22.05,26.25,26.25
-4.91,-0.7,5.89,35.35,37.52,37.52
-2.79,0.76,7.2,62.16,62.16,62.58
-5.17,2.03,8.13,73.08,73.08,73.08
-4.62,3.72,8.75,63.35,63.35,62.3
-3.35,4.22,8.93,51.17,51.17,51.17
-2.25,4.24,10.55,31.78,31.78,30.94
-1.84,4.37,11.26,23.73,23.73,23.73
-1.75,4.2,11.7,18.41,18.41,18.41
-2.98,4.45,12.29,9.24,9.24,9.24
-3,4.34,12,4.13,2.66,2.66
-1.89,4.22,11.55,-2.66,-2.66,-3.57
-1.53,4.32,11.44,-12.46,-12.46,-12.46
-2.21,4.15,11.47,-17.15,-17.15,-17.15
-2.98,3.66,11.19,-22.33,-22.33,-22.33
-3.44,3.1,11.02,-23.03,-23.03,-23.03
-3.43,2.76,9.9,-17.99,-18.06,-18.06
-3.26,2.46,9.72,-17.01,-17.01,-16.66
-3.26,2.07,9.55,-11.06,-11.06,-9.59
-2.83,1.86,9.61,-5.88,-4.83,-4.83
-2.9,1.85,9.79,-1.26,0,0
-2.76,1.91,9.69,4.69,4.69,5.81
-2.68,1.92,9.45,9.1,9.73,9.73
-3.25,2.04,9.59,10.5,10.43,10.43
-3.85,2.16,9.97,11.34,11.34,11.48
-4.19,2.21,10.06,14.28,14.28,14.28
-3.88,2.34,10.16,13.37,12.67,12.67
-3.61,2.55,10,11.34,11.34,11.34
-3.46,2.59,9.54,8.96,8.96,8.96
-3.53,2.54,9.67,6.16,6.16,6.16
-3.61,2.66,9.66,6.23,6.37,6.37
-3.65,2.58,9.14,7.28,7.28,7.28
-4.39,2.59,8.86,5.67,5.53,5.53
-4.63,2.67,8.71,5.67,5.67,5.88
-4.95,2.63,8.24,6.93,7.14,7.14
-5.84,2.63,8.04,6.02,6.02,5.53
-5.43,2.76,8.14,0.63,0.63,0.14
-4.91,2.73,7.83,-0.56,-0.56,-0.56
-4.47,2.74,7.35,-0.91,-1.19,-1.19
-4.46,2.81,6.93,-2.03,-1.96,-1.96
-5.03,2.53,6.62,1.4,1.4,2.24
-5.15,2.46,6.22,7.91,7.91,8.54
-5.12,2.97,5.79,11.62,11.62,11.9
-6.11,2.98,5.22,12.67,12.67,12.74
-7.11,2.68,4.98,14,14,14
-7.75,2.52,4.91,17.85,17.85,17.85
-8.31,2.46,4.38,24.92,24.92,24.92
-7.9,2.32,4.09,29.12,29.12,29.12
-7.83,2.55,3.96,32.2,32.2,32.2
-7.61,2.79,3.44,36.82,37.03,37.03
-7.24,3.12,2.73,36.12,35.49,35.49
-7.25,3.33,2.44,30.31,29.75,29.75
-6.76,3.32,2.23,25.55,25.55,25.2
-6.33,3.22,1.45,24.01,24.01,24.01
-6.31,3.13,1.06,22.96,22.61,22.61
-7.02,3.22,1.08,21.98,21.98,22.26
-7.7,3.27,0.65,24.71,24.71,24.71
-7.81,3.54,0.06,28.49,28.49,28.49
-8.4,3.7,-0.16,27.23,27.23,27.23
-9.04,3.84,-1.09,29.47,29.47,29.47
-9.25,3.7,-1.54,32.13,32.62,32.62
-9.33,3.5,-1.52,32.55,32.55,32.41
-9.52,3.73,-2,31.22,31.22,31.22
-9.42,3.91,-2.5,29.61,29.61,29.05
-8.57,3.92,-2.38,19.74,19.74,19.74
-7.84,3.89,-2.9,17.29,17.29,17.29
-7.26,3.52,-2.99,16.38,16.52,16.52
-7.54,3.48,-2.69,17.22,18.06,18.06
-7.86,4.11,-3.46,20.02,20.3,20.3
-7.7,4.49,-4.15,22.26,22.26,22.26
-7.56,4.26,-4.01,20.79,20.65,20.65
-7.98,3.89,-3.54,21.42,22.89,22.89
-7.78,3.63,-4.53,29.26,29.26,31.57
-8.06,3.73,-5.17,37.59,37.59,37.59
-8.34,3.68,-6.12,45.29,45.29,45.29
-8.33,3.53,-6.04,59.08,59.85,59.85
-8.27,3.57,-5.84,64.54,64.54,64.89
-8.19,3.65,-5.54,66.15,66.36,66.29
-7.68,3.59,-5.87,65.31,64.96,64.96
-7.16,3.48,-7.02,62.09,62.09,61.67
-6.56,3.37,-7.13,60.27,60.13,60.13
-6.68,3.72,-7.12,57.82,57.4,57.4
-7.25,3.78,-7.1,51.59,51.59,50.61
-7.56,3.34,-6.6,38.43,38.43,38.43
-7.59,3.45,-7.42,34.79,34.37,34.37
-7.51,3.59,-7.81,29.61,28.77,28.77
-7.26,3.63,-7.56,21.98,21.14,21.14
-6.98,3.55,-7.24,15.4,14.63,14.63
-6.8,3.36,-7.05,10.85,10.29,10.29
-6.7,3.13,-6.68,6.16,6.16,5.6
-6.66,3.24,-6.02,-0.07,-0.07,-0.7
-6.25,3.24,-6.3,-3.92,-4.41,-4.41
-5.69,3,-7.08,-8.89,-8.89,-9.24
-5.55,2.9,-6.88,-9.94,-9.94,-9.94
-5.8,2.92,-6.93,-10.22,-10.22,-10.29
-6.01,2.97,-7.88,-11.97,-11.97,-11.97
-6.59,2.78,-7.88,-11.13,-11.13,-11.13
-7.16,2.59,-7.45,-6.51,-6.51,-6.51
-7.48,2.51,-7.58,-2.59,-0.91,-0.91
-7.76,2.51,-7.92,3.57,3.57,5.11
-7.27,2.66,-7.33,12.04,12.39,12.39
-6.58,2.66,-7.31,15.68,15.68,15.68
-6.37,2.57,-6.87,19.95,20.3,20.3
-6.19,2.79,-6.37,21.21,21.21,21.14
-5.79,2.99,-6.31,19.18,19.18,18.83
-5.31,2.97,-6.2,15.61,15.61,15.61
-4.94,2.95,-6.03,13.51,13.51,13.51
-4.74,3.05,-6.3,11.48,11.48,11.48
-5.09,3.17,-6.72,8.82,8.82,8.54
-5.48,3.26,-6.65,5.32,5.32,5.32
-5.94,3.23,-6.72,3.01,3.01,3.01
-6.43,3.05,-6.97,1.96,1.96,1.96
-6.99,3.25,-8.47,-1.19,-1.68,-1.68
-7.31,3.14,-8.91,-4.06,-4.06,-5.04
-8.15,3.18,-9.15,-7.35,-7.35,-7.35
-8.29,3.55,-9.75,-14.77,-14.77,-14.77
-8.22,3.49,-10.08,-19.88,-21.28,-21.28
-8.39,3.4,-10.08,-25.41,-25.41,-26.04
-8.29,3.58,-10.16,-32.69,-32.69,-32.69
-7.47,3.37,-10.19,-44.52,-44.52,-44.73
-7.75,3.44,-9.56,-45.85,-45.85,-45.85
-7.68,3.4,-8.88,-46.2,-46.2,-46.2
-7.91,3.2,-8.34,-45.71,-45.71,-45.71
-8.15,2.96,-7.46,-44.31,-44.31,-44.31
-8.12,2.83,-6.73,-44.66,-44.66,-44.66
-7.52,2.78,-6.73,-46.9,-46.9,-46.9
-7.01,2.53,-5.45,-49.98,-50.47,-50.47
-6.74,2.38,-5.05,-52.71,-52.99,-52.99
-6.22,2.44,-4.96,-55.72,-55.72,-56.07
-5.36,2.34,-4.08,-56.35,-56.49,-56.56
-5.84,2.09,-2.58,-56.98,-56.98,-57.12
-7.38,1.97,-2.01,-55.23,-55.23,-54.81
-7.81,1.78,-0.82,-48.37,-48.37,-48.37
-7.97,1.65,-0.2,-43.54,-43.54,-43.54
-8.05,1.85,0.09,-38.22,-38.22,-38.22
-7.08,2.05,0.52,-35.14,-35.14,-35.14
-6.78,2.32,0.99,-32.34,-31.99,-31.99
-6.75,2.62,1.02,-28.91,-28.91,-28.91
-7.11,2.83,2.13,-20.51,-20.51,-20.51
-7.48,2.8,3.02,-14.63,-14.63,-14.63
-7.66,3.05,3.4,-7.91,-7.91,-7.91
-7.26,3.22,3.8,1.12,1.12,1.12
-6.02,3.58,3.97,3.01,2.52,2.52
-5.23,4.23,4.32,-3.08,-3.99,-3.99
-4.75,4.54,4.42,-9.17,-10.01,-10.01
-5.16,4.23,4.48,-17.36,-17.36,-18.27
-5.42,4.63,5.03,-26.81,-26.81,-27.72
-5.86,4.83,5.52,-35.14,-35.14,-36.33
-5.95,4.72,5.6,-43.26,-46.34,-47.81
-6.25,4.47,6.07,-54.53,-56.35,-57.19
-6.64,4.03,6.8,-58.73,-58.73,-58.59
-6.15,3.18,8.12,-48.86,-48.86,-48.86
-4.16,2.7,8.11,-42.84,-42.84,-41.79
-2.26,2.36,8.2,-33.32,-33.32,-33.32
-2.16,2.17,8.86,-20.86,-19.25,-19.25
-3.72,1.86,9.37,-9.17,-7.56,-7.56
-4.81,2.12,9.75,2.45,2.45,3.15
-5.7,2.37,9.67,6.09,6.09,6.09
-6.46,2.21,9.21,8.47,8.47,8.82
-6.94,2.2,8.6,10.57,10.57,10.92
-6.33,2.25,8.09,13.3,13.3,13.44
-5.57,2.39,7.86,16.17,16.17,16.17
-5.13,2.76,7.83,18.13,18.13,18.27
-5.14,2.99,7.76,18.06,18.06,18.06
-5.61,2.89,7.64,17.92,17.92,17.92
-5.59,3.33,7.46,17.64,17.64,17.64
-6.01,3.51,7.37,13.16,13.16,13.16
-7.02,3.37,7.54,9.94,9.94,9.94
-7.38,3.47,7.45,8.89,8.26,8.26
-6.72,3.47,7.54,0.63,0.63,0.07
-5.92,3.37,7.54,-2.94,-2.94,-3.29
-5.35,3.26,7.46,-5.6,-5.6,-5.6
-5.67,3.17,7.79,-10.78,-10.78,-10.78
-6.18,3,7.87,-9.73,-9.73,-9.73
-6.07,2.95,7.6,-6.65,-6.65,-6.65
-6.07,2.91,7.28,-6.72,-6.72,-6.72
-6.41,2.8,7.37,-5.81,-5.81,-5.81
-6.29,2.69,7.37,-2.73,-1.54,-1.54
-6.37,2.64,7.33,1.4,2.1,2.1
-6.53,2.64,7.18,4.34,4.34,5.11
-6.62,2.61,6.72,12.6,12.6,13.37
-6.36,2.82,6.61,14.63,14.63,14.98
-6.14,2.89,6.05,19.67,19.67,20.16
-6.7,2.93,5.68,21.91,21.91,22.12
-7.08,3,5.69,23.31,23.31,23.31
-7.19,3.13,5.42,26.18,26.18,26.18
-6.97,2.92,4.66,29.47,29.47,29.47
-7.54,3.09,4.31,29.19,29.12,29.12
-7.47,3.31,4.36,28.42,28.49,28.49
-7.68,3.36,3.7,28.77,28.77,28.77
-7.63,3.49,3.5,25.41,25.41,25.41
-7.54,3.43,3.51,23.59,23.31,23.31
-8.23,3.17,3.38,25.48,25.48,25.48
-8.4,3.39,3.22,28.49,28.49,28.49
-8.23,3.97,3.04,27.44,27.44,27.44
-8.54,3.97,2.57,28,28.91,28.91
-8.27,3.86,2.13,30.03,29.82,29.82
-8.02,4.08,1.94,28.07,28.07,27.72
-8.3,4.02,1.67,25.55,25.55,25.41
-7.85,3.83,1.51,23.45,23.45,23.17
-7.39,3.97,0.86,21.7,21.7,21.35
-7.08,4.03,0.38,19.53,19.18,19.18
-6.79,3.74,0.06,15.33,15.33,14.91
-6.97,3.13,-0.49,16.45,16.45,17.08
-7.56,2.88,-0.95,22.12,22.12,22.82
-8.05,3.36,-0.92,23.87,23.87,23.87
-7.83,3.79,-1.31,19.81,19.81,19.81
-7.31,3.6,-2.5,12.88,12.88,12.88
-7.51,3.44,-2.23,9.66,9.66,9.66
-7.86,3.39,-2.32,6.51,6.51,6.51
-7.93,3.45,-3.02,5.6,5.6,5.6
-7.74,3.18,-3.17,6.72,6.72,7.21
-7.68,3.17,-3.2,11.55,11.55,11.55
-8.06,3.32,-3.72,14.84,15.89,15.89
-8.16,3.34,-4.38,18.62,18.62,19.32
-8.04,3.42,-4.42,21.63,21.63,21.63
-7.85,3.41,-5.54,23.94,23.94,23.94
-8.06,3.11,-6.33,26.11,26.11,26.11
-8.27,2.93,-6.06,29.26,29.26,29.26
-8.5,2.88,-5.78,30.94,30.94,30.94
-8.09,2.79,-6.42,32.62,32.62,32.62
-7.35,2.64,-6.75,36.82,36.82,36.82
-6.94,2.49,-6.62,41.72,41.72,41.72
-6.83,2.51,-7.16,44.52,45.36,45.36
-6.48,2.3,-8.13,47.11,48.02,48.02
-6.86,2.17,-7.8,53.69,53.69,53.69
-7.06,2.07,-7.48,55.02,55.02,55.02
-7.23,1.96,-6.98,56.07,56.07,56.07
-6.96,2.07,-8.16,57.05,57.05,57.33
-7.04,2.25,-8.61,56.77,56.77,56.77
-6.14,2.43,-8.58,52.71,52.71,52.71
-5.92,2.4,-8.16,44.52,44.52,44.52
-5.64,2.6,-9.42,22.19,22.19,21
-6.19,2.45,-9.15,13.79,13.79,13.79
-6.92,2.32,-9.32,8.82,8.82,8.82
-7.2,2.27,-9.04,3.08,2.45,2.45
-6.81,2.26,-8.77,-0.98,-3.08,-3.08
-5.92,2.24,-9.51,-9.8,-9.8,-9.8
-5.57,2.31,-9.11,-13.09,-13.44,-13.44
-5.3,2.2,-8.88,-15.05,-15.05,-15.05
-5.58,2.01,-8.6,-12.18,-12.18,-12.18
-5.88,1.99,-8.27,-6.58,-6.58,-6.58
-5.61,2.16,-8.52,-5.39,-5.25,-5.25
-5.62,2.1,-9.07,-3.43,-3.43,-3.43
-6.03,1.97,-9.15,0.35,0.35,0.35
-6.52,2.23,-9.19,2.03,2.03,2.03
-6.83,2.45,-9.71,0.49,0.14,-0.56
-6.51,2.56,-11.08,-2.52,-2.94,-2.94
-7.1,2.42,-11.11,-7.84,-8.26,-8.26
-7.92,2.58,-11.08,-11.06,-11.06,-13.37
-8.63,2.75,-11.01,-18.34,-18.34,-19.39
-8.46,2.45,-10.29,-27.72,-27.72,-28.56
-7.98,2.45,-10.24,-34.23,-34.23,-35.07
-7.5,2.51,-10.07,-43.33,-43.33,-44.59
-7,2.5,-9.6,-50.26,-52.36,-53.34
-6.47,2.3,-9.34,-57.75,-57.75,-58.52
-6.88,2.72,-8.87,-66.08,-66.08,-67.2
-7.34,2.93,-7.83,-76.37,-76.37,-77.7
-7.31,2.96,-7.83,-85.05,-85.05,-85.54
-7.41,2.79,-7.42,-89.18,-89.18,-89.53
-9.29,2.63,-6.35,-91.07,-91.07,-91.42
-9.35,3.13,-5.93,-97.65,-97.65,-97.65
-8.14,3.33,-5.85,-100.52,-101.08,-101.08
-7.38,3.27,-5.08,-102.83,-103.46,-103.46
-8.04,3.91,-4.23,-108.78,-108.78,-108.78
-7.11,4.65,-3.31,-124.18,-124.18,-124.18
-5.89,4.26,-2.19,-141.89,-141.89,-141.89
-5.08,3.47,-1.39,-147.35,-147.35,-148.54
-5.13,2.76,-0.3,-149.8,-149.8,-149.8
-5.32,2.09,0.92,-149.66,-149.66,-149.66
-5.02,2.04,1.73,-150.92,-150.92,-151.48
-4.87,1.56,2.59,-152.32,-152.32,-152.32
-5.43,0.77,2.53,-147.77,-145.46,-145.46
-5.26,0.18,2.71,-138.46,-138.46,-136.36
-4.76,0.13,3.1,-129.64,-129.64,-129.64
-5.26,0.03,3.48,-124.18,-123.06,-123.06
-5.32,-0.35,3.68,-116.34,-114.94,-114.94
-7.34,-0.84,4.02,-104.79,-104.79,-103.6
-7.97,-1.05,4.62,-97.51,-94.64,-93.1
-7.76,-0.81,4.94,-86.52,-86.52,-83.58
-7.17,-0.72,4.65,-81.06,-81.06,-80.08
-6.99,-0.82,5.32,-76.65,-76.65,-76.65
-7.47,-0.95,5.56,-71.75,-71.75,-71.75
-7.6,-1,5.56,-73.08,-73.08,-73.08
-7.37,-1.05,6.33,-80.85,-80.85,-80.85
-7.19,-1.14,6.68,-85.33,-85.33,-85.33
-6.66,-1.38,6.38,-89.95,-89.95,-89.95
-6.27,-1.67,6.83,-91.56,-91.56,-91.56
-4.2,-2.4,7.07,-89.6,-89.6,-89.6
-3.29,-2.88,7.02,-91,-91,-91
-4,-3.44,7.44,-93.24,-93.24,-93.24
-5.62,-3.84,7.88,-94.01,-93.66,-93.66
-4.89,-4.83,7.91,-92.4,-91.28,-91.28
-4.72,-5.64,7.6,-88.62,-88.62,-88.62
-5.42,-6.55,7.14,-81.06,-79.52,-79.52
-6.26,-7.42,7.19,-61.74,-59.64,-59.64
-6.97,-7.67,7.54,-44.45,-42.21,-42.21
-6.96,-7.85,7.15,-27.72,-25.55,-25.55
-5.99,-8.24,6.66,-15.89,-9.87,-9.87
-5.66,-8.1,6.4,0.14,5.95,5.95
-6.21,-7.68,6.32,14.7,19.18,19.18
-6.43,-7.17,6.57,28.28,28.28,28.28
-6.23,-6.54,6.59,36.96,38.08,40.04
-6.35,-5.93,6.18,43.47,43.82,43.82
-5.73,-5.13,5.92,44.17,43.82,43.82
-5.74,-4.56,6.1,40.11,39.41,39.41
-5.74,-4.23,6.29,30.03,30.03,28.84
-6.15,-4.23,6.43,20.65,20.65,19.67
-6.77,-4.13,6.56,14.77,14.77,11.76
-6.52,-4.18,6.68,6.44,6.44,5.25
-5.8,-4.59,7.08,-6.86,-6.86,-8.05
-5.74,-5.13,7.37,-12.67,-12.67,-13.37
-5.4,-6.03,7.78,-16.8,-16.8,-16.8
-5.39,-7.07,8.19,-14.84,-14.84,-14.84
-4.77,-7.52,8.25,-4.41,-4.41,-2.94
-4.93,-8.11,7.82,14.84,14.84,14.84
-5.85,-8.45,7.88,31.22,37.66,37.66
-5.77,-8.15,6.21,57.26,57.26,63.84
-5.89,-7.46,6.64,82.95,82.95,82.95
-6.18,-6.36,5.97,111.58,111.58,111.58
-6.68,-5.65,5.49,126,128.24,128.24
-6.77,-4.78,4.82,142.31,144.27,144.27
-6.19,-3.7,4.73,156.59,156.59,158.2
-5.82,-2.78,4.02,171.29,171.29,171.29
-5.85,-2,3.54,177.03,178.57,196.49
-5.76,-0.89,3.39,182.63,182.98,182.98
-6.2,0.59,2.84,179.34,179.34,178.29
-6.65,1.72,2.67,171.5,168.49,166.88
-7.15,2.02,2.85,160.02,158.76,158.76
-7.89,2.6,2.39,147.63,147.63,145.88
-8.12,3.48,2.24,131.67,131.67,129.36
-7.69,3.5,2.17,117.95,117.95,116.27
-7.66,3.26,1.57,107.73,107.73,107.73
-6.83,4.62,1.3,81.06,81.06,81.06
-6.64,3.81,0.8,71.19,71.19,71.19
-7.24,3.56,0.6,73.01,73.01,73.01
-7.55,4.24,0.27,70.14,69.72,69.72
-7.39,4.52,-0.4,67.62,67.13,66.85
-7.26,3.67,-0.85,67.27,67.27,67.27
-8.26,4.4,-1.25,68.74,68.88,68.88
-8.71,5.35,-2.88,67.41,66.99,66.99
-8.61,5.4,-3.24,61.95,61.25,61.25
-8.7,4.61,-2.99,58.17,57.19,57.19
-8.46,4.53,-3.1,56,56,56
-7.82,4.6,-3.81,54.67,54.67,54.67
-8,4.19,-3.97,54.25,54.32,54.32
-8.15,3.38,-4.06,58.8,58.8,59.36
-8.27,3.58,-4.51,62.44,62.44,62.72
-7.08,3.13,-4.76,55.93,55.93,55.93
-6.82,3.12,-5.18,58.66,58.66,58.66
-6.6,3.33,-5.3,59.15,59.08,59.08
-6.48,3.57,-6.58,58.59,58.59,58.59
-6.68,3.66,-6.79,57.19,57.12,57.12
-7.46,3.54,-6.25,56.91,56.77,56.77
-7.89,3.57,-6.36,55.16,55.16,55.02
-7.9,3.37,-7.09,54.88,54.88,55.16
-7.77,3.2,-7.22,57.82,57.82,58.31
-8.08,3.4,-7.11,60.9,60.9,60.9
-7.7,3.18,-8.09,58.1,58.1,57.47
-7.49,3.24,-8.15,54.74,53.34,53.34
-7.56,3.13,-7.61,48.02,48.02,46.2
-6.98,2.74,-8.39,39.83,39.83,39.83
-6.58,2.53,-8.5,35.84,35.42,35.42
-6.5,2.17,-8.11,28.77,28.21,28.21
-6.4,2.02,-8.2,24.36,24.01,24.01
-6.36,2.01,-7.87,20.93,20.93,20.23
-6.52,2.02,-8.03,13.65,13.65,13.65
-6.37,1.95,-8.67,9.52,8.26,8.26
-6.62,1.88,-9.11,3.78,3.78,3.78
-6.63,1.92,-9.05,-0.98,-1.4,-1.4
-7.07,1.83,-9.29,-5.67,-5.67,-5.67
-7.62,1.79,-8.98,-8.12,-8.12,-8.26
-7.44,1.99,-8.68,-9.45,-9.45,-9.45
-7.1,2.04,-8.71,-13.72,-13.72,-13.72
-6.65,1.99,-8.91,-13.93,-13.93,-13.93
-6.03,2.22,-8.8,-14.56,-14.84,-14.84
-5.76,2.37,-8.5,-16.66,-17.08,-17.08
-5.61,2.12,-8.85,-18.34,-18.2,-18.2
-6.8,1.88,-8.84,-16.1,-16.1,-16.1
-7.98,2.04,-8.73,-14.42,-14.42,-14.42
-8.01,2.32,-9.63,-17.92,-17.92,-17.92
-8.17,2.21,-10.66,-21.63,-21.63,-21.63
-8.9,1.8,-10.83,-21.84,-21.84,-21.98
-9.17,2.09,-11.21,-23.59,-23.59,-23.59
-9.51,2.05,-11.11,-30.38,-30.38,-30.38
-9.92,1.44,-10.46,-31.36,-31.36,-31.36
-10.25,1.17,-10.26,-30.24,-30.17,-30.17
-9.81,1.37,-9.96,-32.06,-32.48,-32.48
-8.29,1.34,-9.17,-34.44,-34.44,-34.44
-7.93,0.58,-8.93,-29.26,-27.93,-27.93
-8.03,0.65,-7.99,-20.16,-19.46,-19.46
-7.49,0.94,-6.85,-16.8,-15.4,-15.4
-6.69,1.07,-6.81,-12.11,-11.2,-11.2
-5.77,0.7,-5.08,10.78,10.78,12.46
-6.1,0.68,-4.08,27.37,27.37,29.05
-5.43,0.71,-3.19,41.37,41.37,42.91
-4.14,1.19,-2.18,51.59,52.92,52.92
-4.7,1.33,-1.17,60.41,60.41,60.9
-4.23,1.31,-0.99,64.05,64.89,64.89
-3.4,1.68,-0.49,72.59,74.83,74.83
-4.19,2.36,1.23,79.1,79.31,79.31
-4.67,2.6,2.18,79.8,79.8,79.94
-4.33,2.79,2.47,81.69,82.6,83.16
-5.35,2.88,2.76,86.45,86.45,88.76
-4.75,3.85,3.27,93.24,93.73,93.73
-4.71,4.19,3.56,97.3,97.3,97.86
-5.35,4.05,3.01,106.12,106.12,107.8
-4.89,5.31,2.97,117.74,117.74,118.72
-5.37,6.52,4.17,114.45,114.45,114.45
-3.77,7.62,3.33,103.81,103.53,103.53
-4.6,8.13,3.7,101.5,101.5,99.96
-3.56,8.67,3.58,91.14,91.14,91.14
-3.13,8.82,3.26,86.45,86.31,86.31
-3.97,9.54,4.09,80.43,80.43,79.52
-4.22,9.84,3.93,74.76,73.15,72.45
-3.71,10.25,3.69,69.3,69.3,69.3
-4.32,11.21,4.47,61.32,61.32,61.32
-4.21,11.61,4.49,48.09,48.09,48.09
-3.45,11.62,4.23,38.92,38.92,35.91
-3.32,11.22,4.12,24.43,24.43,24.43
-2.74,10.93,3.38,13.44,12.6,12.6
-3.17,10.6,3.27,6.86,5.88,5.88
-3.79,10.09,3.46,-3.29,-3.29,-4.41
-4.35,9.76,3.57,-9.94,-11.13,-12.04
-5.19,9.26,3.47,-20.3,-20.3,-21.21
-5.78,8.78,3.52,-26.88,-26.88,-27.44
-6.07,8.15,3.48,-28.63,-28.63,-28.42
-6.44,7.87,3.39,-27.51,-27.51,-27.65
-6.19,7.62,3.14,-28.49,-28.49,-28.63
-5,6.97,2.89,-27.72,-27.72,-27.51
-4.76,6.56,3,-24.08,-24.08,-24.08
-4.97,6.53,3.16,-22.61,-22.4,-22.4
-4.61,6.7,3.16,-22.75,-22.75,-22.75
-4.84,6.41,3.51,-19.25,-19.25,-19.25
-5.46,6.37,3.74,-15.75,-15.19,-15.19
-5.17,7.09,3.8,-15.33,-15.54,-15.54
-4.51,7.39,3.68,-15.68,-15.47,-15.47
-4.85,7.5,4.08,-14.77,-14.77,-14.91
-5.56,8.14,4.26,-17.57,-17.57,-19.32
-4.54,8.95,4.14,-25.62,-28.28,-28.28
-4.35,8.99,4.32,-38.5,-39.83,-39.83
-5.19,8.83,4.38,-51.94,-51.94,-53.48
-5.08,8.92,4.08,-67.62,-67.62,-67.62
-5.16,8.66,4.08,-78.89,-82.74,-82.74
-5.51,8.26,4.21,-93.1,-93.1,-93.1
-5.59,7.95,4.38,-106.89,-106.89,-106.89
-5.87,6.64,4.25,-121.87,-121.87,-122.01
-5.93,6.58,4.58,-121.66,-121.66,-121.52
-6.63,6.36,4.77,-121.1,-121.1,-121.1
-6.81,5.7,4.69,-121.17,-121.17,-121.17
-6.34,5.31,4.59,-119.42,-119.42,-119.42
-6.86,4.59,4.43,-118.23,-117.88,-116.9
-7.21,3.94,4.28,-112.7,-111.79,-109.62
-6.29,4.02,3.94,-104.44,-103.46,-103.46
-5.92,3.67,3.23,-96.74,-96.74,-96.74
-6.02,3.16,2.61,-87.85,-86.45,-86.45
-6.15,3.17,2.2,-73.43,-73.43,-72.31
-6.43,3.35,1.6,-66.36,-66.36,-66.36
-6.18,3.36,0.92,-59.85,-57.26,-57.26
-6.08,3.19,0.63,-53.06,-52.22,-50.54
-6.62,3.13,0.13,-44.73,-44.73,-44.73
-7.12,2.9,-0.73,-36.12,-34.72,-34.72
-7.22,3.13,-1.17,-24.15,-23.31,-23.31
-7.38,3.32,-1.92,-19.39,-18.97,-18.97
-7.48,3.45,-2.52,-17.71,-17.64,-17.64
-7.41,3.28,-2.4,-16.52,-16.52,-16.38
-7.63,3.14,-2.49,-15.4,-15.4,-14.56
-7.74,3.09,-3.74,-11.06,-11.06,-11.06
-7.86,2.94,-3.65,-2.24,-2.24,-2.24
-8.3,3.08,-4.08,3.92,3.92,3.92
-8.44,3.04,-4.46,8.89,8.89,8.89
-7.87,2.79,-4.25,15.4,16.31,16.31
-7.78,2.62,-4.69,22.82,24.01,24.01
-7.74,2.53,-5.36,29.89,33.53,33.53
-7.38,2.18,-5.62,41.44,41.44,41.44
-7.55,2.25,-5.44,48.16,48.16,48.16
-7.35,2.59,-6.55,55.09,55.79,55.79
-6.58,2.85,-6.87,58.1,58.17,58.17
-6.25,2.77,-6.59,56.42,55.93,55.3
-5.66,1.58,-7.54,64.47,65.24,65.24
-5.27,1.58,-8.47,70.14,70.63,70.63
-4.82,1.48,-9.88,72.87,72.87,73.08
-4.54,1.25,-10.46,75.04,75.04,75.04
-5.36,1.88,-10.13,69.37,66.85,66.85
-5.92,1.56,-9.89,64.96,64.68,64.47
-6.01,1.73,-9.86,63.07,62.51,60.83
-5.39,2.08,-10.57,54.53,52.92,52.92
-5.19,2.07,-10.91,23.66,20.16,18.27
-4.64,1.4,-10.92,-8.96,-8.96,-9.38
-5.4,1.16,-10.09,-13.23,-13.23,-13.23
-5.39,1.1,-9.87,-15.96,-15.96,-15.96
-4.64,1.35,-9.59,-22.12,-22.12,-22.12
-5.98,2.86,-11.73,-50.19,-50.19,-51.94
-6.44,2.76,-12.35,-63.14,-63.14,-63.14
-6.98,3.07,-12.87,-70.42,-70.42,-70.42
-7.7,2.97,-11.97,-70.28,-70.28,-70.28
3.15,3.39,3.4,223.93,223.93,223.93
3.65,4.04,3.4,215.46,215.46,215.46
4.18,5.96,3.8,204.82,199.71,199.71
5.03,8.17,4.68,179.34,179.34,171.01
5.53,10.03,5.96,135.8,135.8,135.8
5.92,11.04,6.61,111.02,111.02,111.02
6.62,13.26,6.82,76.44,71.75,71.75
4.33,10.51,7.38,13.58,13.58,12.95
2.4,6.51,6.16,41.93,41.93,44.31
2.94,6.8,5.55,59.29,59.29,61.04
4.65,7.59,4.99,67.2,67.2,67.76
6,7.55,4.54,70.84,70.84,71.47
9.97,8.11,4.05,70.56,69.16,69.16
10.52,8.01,4.25,59.5,59.5,59.5
10.98,7.6,4.37,58.1,58.24,58.24
11.19,7.68,4.37,58.59,58.59,58.59
10.71,7.72,4.28,57.47,57.33,57.33
9.97,7.79,4.16,56.28,56.28,56
9.11,8.05,3.78,54.11,53.76,53.76
8.46,8.08,3.26,51.59,51.59,51.59
7.61,7.91,2.76,51.45,51.45,51.66
7.1,7.87,1.93,51.38,51.38,51.38
6.76,8.09,1.56,50.26,50.26,50.26
6.87,8.22,1.27,47.6,47.32,47.32
7.06,8.2,0.99,44.87,44.87,44.31
7.24,8.3,0.8,41.23,41.23,41.23
7.3,8.42,0.79,32.97,32.97,32.97
7.36,8.22,0.87,27.16,27.16,25.48
7.28,7.97,0.95,20.79,20.79,19.67
6.59,7.64,1.26,13.65,13.65,12.53
5.9,7.93,1.42,8.68,7.91,7.91
4.19,9.76,1.67,-10.15,-13.16,-13.16
2.04,10.62,1.75,-29.82,-33.32,-33.32
3.05,9.32,1.15,-57.82,-59.57,-59.57
5.54,7.76,0.76,-67.62,-68.46,-68.46
6.69,6.52,0.61,-72.31,-72.52,-72.52
6.71,5.63,0.53,-71.96,-71.61,-71.61
7.04,4.51,0.7,-67.48,-66.57,-66.57
7.28,4.09,0.64,-55.65,-55.65,-54.04
7.6,3.88,0.64,-44.87,-40.53,-38.36
7.63,3.66,0.83,-26.04,-26.04,-18.2
7.35,3.81,1.27,0.42,0.42,3.01
7,4.28,1.53,19.32,19.32,21.35
6.73,4.69,1.44,32.2,32.2,33.32
6.29,5.36,1.33,37.03,37.24,37.24
6.3,6.3,1.23,33.53,33.53,32.41
6.55,7.66,1.19,25.27,21.56,19.74
6.81,8.78,1.25,8.26,3.15,0.28
7.23,8.98,1.07,-17.36,-17.36,-17.36
7.46,8.26,1.11,-29.54,-29.54,-30.1
7.95,7.88,1.04,-31.22,-31.22,-31.15
9.02,7.76,1.02,-30.59,-30.52,-30.52
9.29,6.16,1.11,-29.82,-29.82,-29.75
8.53,5.95,1.4,-27.79,-26.46,-26.46
7.8,5.29,1.66,-20.58,-20.58,-0.28
7.27,6.42,1.45,-12.67,-12.67,-12.25
5,10.03,0.63,-16.94,-16.94,-16.94
3.1,10.65,0.25,-35.7,-35.7,-35.7
3.36,9.31,0.43,-42.98,-42.98,-42.98
4.65,7.22,0.89,-35.91,-35.91,-35.91
5.41,6.39,1.49,-11.97,-11.97,-11.97
5.62,6.99,1.54,4.41,4.41,4.41
5.56,8.35,1.35,11.34,11.27,11.27
5.28,9.09,1,7.28,6.44,6.44
5.25,8.97,0.73,0.84,0.21,0.21
5.27,8.04,0.6,0.77,1.61,1.61
5.44,7.75,0.43,8.61,9.66,9.66
5.85,7.87,0.27,15.89,16.73,16.73
6.1,7.95,0.04,21.21,21.21,21.49
6.32,7.8,0,22.19,22.19,22.19
6.49,7.8,0.15,22.12,22.12,22.12
6.79,7.84,0.3,21,21,21
7.21,7.75,0.36,19.11,18.34,18.34
7.47,7.56,0.37,15.82,14.91,14.91
7.42,7.21,0.3,13.16,13.16,13.02
7.35,6.91,0.28,12.81,12.81,12.81
7.36,6.66,0.19,12.95,13.02,13.16
7.24,6.46,0.23,12.81,12.88,13.16
6.81,6.15,0.33,14.77,14.77,15.12
6.31,6.01,0.47,18.97,20.37,20.37
5.76,5.78,0.66,24.57,24.57,25.41
5.53,5.97,0.85,25.48,25.48,25.48
5.47,6.25,0.89,19.18,19.18,16.73
5.56,6.35,0.66,6.65,6.65,6.65
5.7,6.36,0.19,-3.5,-4.41,-4.41
6,6.71,-0.24,-9.52,-11.48,-12.53
5.96,6.71,-0.63,-16.45,-16.45,-17.78
5.53,6.38,-0.63,-17.22,-17.22,-17.22
5.66,6.18,-0.35,-7.77,-7.77,-7.77
6.06,6.81,-0.23,-0.42,0.63,0.63
6.18,7.44,-0.22,7,7,7.49
6.06,7.56,-0.11,10.29,10.29,10.78
5.82,7.35,-0.12,16.24,16.24,16.24
5.95,7.61,-0.2,20.72,20.72,20.72
6.29,8.22,-0.04,22.89,22.89,22.89
6.22,8.46,-0.08,25.34,25.34,25.34
6.45,8.72,-0.15,25.41,24.99,24.99
6.65,8.15,-0.05,19.74,19.74,18.9
7.14,7.87,-0.08,15.68,14.28,13.58
7.53,7.75,-0.2,10.15,10.15,9.59
7.7,7.59,-0.34,3.85,3.85,3.29
7.72,7.39,-0.43,-0.28,-0.28,-0.28
7.75,7.17,-0.51,-3.92,-4.34,-4.34
7.67,6.67,-0.44,-5.67,-5.53,-5.53
7.4,6.37,-0.37,-2.87,-2.38,-2.38
7.13,6.01,-0.3,1.96,3.15,5.6
6.78,5.78,-0.22,11.9,13.3,13.3
6.6,5.93,-0.3,24.15,25.2,25.2
6.44,6.17,-0.38,29.82,32.27,32.27
6.14,6.49,-0.53,35.56,36.12,37.1
5.65,6.94,-0.7,39.34,39.76,39.76
4.95,7.91,-0.92,41.16,41.02,41.02
4.35,9.06,-1.14,36.54,35.42,35.42
4.06,9.56,-1.29,24.15,24.15,24.15
4.21,9.41,-1.48,9.17,9.17,7.77
4.67,8.26,-1.47,2.87,2.1,1.89
5.55,7.19,-1.37,3.5,5.04,5.88
6.31,6.59,-1.25,15.4,15.4,15.4
6.78,6.91,-1.43,27.93,28.77,28.77
6.78,7.72,-1.5,30.8,29.47,29.47
6.5,8.48,-1.45,23.52,22.05,18.55
7.02,8.54,-1.55,9.24,7.35,7.35
7.23,7.72,-1.57,-4.97,-4.97,-5.88
7.17,7.17,-1.52,-8.54,-8.54,-8.4
7,6.7,-1.36,-7.14,-7.14,-6.65
6.82,6.47,-1.07,-1.96,-1.05,-1.05
6.39,6.52,-0.98,6.37,6.37,6.37
5.7,6.59,-0.94,13.16,13.16,13.16
5.64,7.28,-1.23,20.93,20.93,20.93
5.82,7.88,-1.75,24.22,24.5,24.5
5.8,7.94,-2.42,24.99,24.92,24.92
5.79,7.87,-2.75,24.08,24.08,24.08
6.37,7.84,-2.92,23.17,22.82,22.47
6.89,8,-2.77,19.81,19.81,19.81
6.65,8.18,-2.63,12.39,11.48,11.48
6.1,8.11,-2.6,7.77,6.37,6.37
5.69,7.77,-2.28,6.09,6.09,6.09
5.82,7.61,-1.92,6.65,6.65,6.79
6.16,7.73,-1.99,6.72,6.72,6.72
6.7,7.51,-1.9,8.26,8.26,8.26
7.11,7.25,-1.9,12.67,13.58,13.58
7.05,7.23,-1.92,20.58,20.58,20.86
7.53,7.46,-2.12,19.46,19.46,18.97
7.84,7.27,-2.21,11.13,11.13,11.13
7.75,6.64,-2.18,-3.43,-3.43,-3.43
