aX,aY,aZ,gX,gY,gZ
0.30,-9.69,-1.42,0.77,0.77,0.77
0.29,-9.70,-1.44,1.33,1.33,1.54
0.30,-9.72,-1.43,2.52,2.52,2.52
0.29,-9.68,-1.41,1.40,1.40,1.40
0.28,-9.69,-1.45,0.98,0.98,1.33
0.27,-9.69,-1.45,1.75,1.75,1.75
0.24,-9.71,-1.42,2.45,2.59,2.59
0.26,-9.70,-1.43,1.47,1.47,1.47
0.30,-9.71,-1.41,1.75,1.75,1.75
0.28,-9.68,-1.43,2.31,2.31,2.31
0.30,-9.69,-1.41,1.96,1.96,1.96
0.28,-9.69,-1.42,1.61,1.61,1.54
0.28,-9.71,-1.43,1.82,1.68,1.68
0.30,-9.70,-1.44,2.03,1.82,2.10
0.28,-9.71,-1.43,2.17,2.10,2.10
0.30,-9.69,-1.44,1.68,1.68,1.68
0.26,-9.70,-1.44,1.61,1.54,1.54
0.27,-9.69,-1.44,2.03,2.03,2.03
0.28,-9.69,-1.43,2.17,2.17,2.24
0.31,-9.67,-1.43,2.24,2.31,2.31
0.28,-9.69,-1.40,1.68,1.54,1.54
0.26,-9.70,-1.43,1.33,1.33,1.33
0.26,-9.71,-1.45,1.89,1.89,1.96
0.32,-9.68,-1.42,2.80,2.80,2.80
0.30,-9.68,-1.39,2.31,2.31,2.17
0.29,-9.69,-1.40,1.12,1.12,1.12
0.32,-9.71,-1.41,2.66,2.80,2.73
0.29,-9.67,-1.40,2.24,1.89,1.33
0.26,-9.70,-1.41,0.84,0.84,0.84
0.29,-9.70,-1.46,1.61,1.61,1.61
0.31,-9.69,-1.40,2.87,3.08,3.08
0.31,-9.67,-1.41,2.66,2.66,2.66
0.26,-9.70,-1.41,0.98,0.98,0.98
0.30,-9.70,-1.44,0.98,0.98,0.98
0.31,-9.71,-1.44,2.38,2.38,2.87
0.29,-9.68,-1.42,3.01,3.01,2.66
0.30,-9.66,-1.39,1.12,1.12,1.12
0.29,-9.71,-1.41,0.98,0.98,0.98
0.33,-9.71,-1.45,2.17,2.17,2.17
0.28,-9.67,-1.43,2.80,2.80,2.59
0.27,-9.68,-1.41,1.75,1.75,1.68
0.29,-9.71,-1.40,1.05,1.05,0.98
0.31,-9.71,-1.45,2.03,2.03,2.03
0.31,-9.70,-1.46,2.52,2.52,2.52
0.28,-9.69,-1.40,2.03,2.03,2.03
0.29,-9.69,-1.43,1.19,1.19,1.19
0.30,-9.71,-1.44,2.10,2.24,2.24
0.30,-9.69,-1.44,2.38,2.38,2.17
0.31,-9.68,-1.41,1.40,1.40,1.40
0.31,-9.68,-1.43,1.89,1.96,1.96
0.30,-9.71,-1.43,2.10,2.38,2.38
0.30,-9.69,-1.42,2.31,2.24,2.24
0.28,-9.69,-1.41,1.54,1.54,1.47
0.26,-9.71,-1.44,1.47,1.47,1.47
0.32,-9.69,-1.43,2.31,2.31,2.31
0.29,-9.68,-1.42,2.31,2.31,2.24
0.29,-9.68,-1.41,1.75,1.75,1.61
0.30,-9.69,-1.44,1.40,1.40,1.33
0.29,-9.71,-1.44,1.61,1.61,1.61
0.30,-9.70,-1.44,2.38,2.38,2.38
0.30,-9.70,-1.41,2.03,2.03,2.03
0.29,-9.69,-1.42,1.19,1.12,1.12
0.28,-9.72,-1.44,1.61,1.61,1.61
0.29,-9.70,-1.43,2.38,2.38,2.38
0.31,-9.69,-1.43,2.38,2.17,2.17
0.28,-9.67,-1.41,1.68,1.40,1.40
0.30,-9.71,-1.44,1.33,1.33,1.33
0.32,-9.70,-1.43,2.03,2.03,2.03
0.30,-9.68,-1.43,2.31,2.31,2.31
0.30,-9.69,-1.41,1.96,1.96,1.96
0.30,-9.71,-1.44,1.33,1.33,1.33
0.29,-9.71,-1.42,1.68,1.68,1.89
0.29,-9.69,-1.43,2.45,2.45,2.45
0.28,-9.66,-1.43,1.82,1.75,1.75
0.27,-9.67,-1.41,1.40,1.26,1.26
0.30,-9.70,-1.45,1.89,1.96,1.96
0.31,-9.70,-1.44,2.31,2.38,2.38
0.30,-9.70,-1.41,2.03,1.96,1.89
0.29,-9.70,-1.43,1.54,1.61,1.54
0.30,-9.71,-1.43,1.61,1.61,1.61
0.28,-9.70,-1.42,1.96,2.17,2.24
0.31,-9.68,-1.42,2.10,2.10,2.03
0.29,-9.68,-1.41,1.68,1.68,1.75
0.27,-9.68,-1.43,1.75,1.75,1.54
0.30,-9.70,-1.42,1.96,1.96,1.96
0.29,-9.71,-1.41,2.17,2.17,2.17
0.30,-9.69,-1.41,1.82,1.82,1.82
0.28,-9.67,-1.41,1.68,1.68,1.61
0.28,-9.69,-1.45,1.82,1.82,1.82
0.30,-9.67,-1.42,2.10,2.10,2.10
0.30,-9.70,-1.44,1.96,1.96,1.96
0.30,-9.68,-1.42,1.82,1.75,1.75
0.29,-9.68,-1.43,1.75,1.75,1.89
0.38,-9.60,-1.40,2.59,2.59,2.59
0.19,-9.77,-1.45,-0.21,-0.14,-0.14
0.22,-9.70,-1.52,2.17,2.17,2.17
0.36,-9.72,-1.45,2.10,2.31,3.50
0.36,-9.69,-1.34,4.06,3.36,3.36
0.28,-9.61,-1.34,1.54,0.91,0.91
0.18,-9.77,-1.45,-1.54,-1.54,-1.54
0.35,-9.71,-1.56,2.45,3.43,3.43
0.35,-9.70,-1.42,5.88,5.53,5.53
0.25,-9.62,-1.31,2.38,1.82,1.82
0.25,-9.68,-1.37,-1.82,-1.82,-1.82
0.33,-9.75,-1.52,-0.98,-0.21,-0.21
0.34,-9.75,-1.51,5.18,5.32,5.60
0.33,-9.64,-1.38,4.41,4.41,4.41
0.23,-9.67,-1.34,-0.35,-0.77,-0.77
0.26,-9.74,-1.44,-1.47,-1.33,-1.33
0.37,-9.71,-1.51,1.82,2.66,3.99
0.30,-9.71,-1.47,5.32,5.32,5.32
0.24,-9.68,-1.34,1.05,0.35,0.35
0.30,-9.71,-1.43,-1.47,-1.33,-1.33
0.36,-9.73,-1.50,1.89,1.89,1.89
0.30,-9.71,-1.43,4.97,4.90,4.90
0.22,-9.67,-1.37,2.31,2.31,1.75
0.33,-9.70,-1.44,4.13,4.13,4.13
0.27,-9.67,-1.41,3.22,2.66,2.66
0.24,-9.69,-1.43,-0.42,-0.42,-0.70
0.32,-9.71,-1.46,1.12,1.12,1.61
0.35,-9.70,-1.44,4.34,4.34,4.41
0.27,-9.66,-1.40,3.01,3.01,2.59
0.25,-9.66,-1.41,-0.42,-0.42,-0.42
0.30,-9.70,-1.48,-0.28,0.00,1.05
0.32,-9.71,-1.45,4.20,4.20,4.20
0.28,-9.67,-1.38,3.99,3.71,3.71
0.24,-9.69,-1.40,-0.07,-0.28,-0.28
0.29,-9.73,-1.48,0.07,0.07,0.07
0.33,-9.71,-1.45,3.78,3.78,3.78
0.31,-9.69,-1.47,-0.21,-0.14,-0.14
0.32,-9.73,-1.51,2.03,2.03,2.03
0.26,-9.70,-1.43,3.85,3.85,3.85
0.27,-9.66,-1.37,2.03,1.61,0.98
0.30,-9.69,-1.43,-0.07,-0.07,-0.07
0.32,-9.71,-1.47,2.31,2.31,2.31
0.29,-9.69,-1.43,3.36,3.36,3.36
0.29,-9.67,-1.37,2.03,2.03,2.03
0.28,-9.68,-1.38,0.63,0.63,0.63
0.30,-9.69,-1.46,1.33,1.33,1.33
0.29,-9.71,-1.47,2.31,2.66,2.66
0.27,-9.69,-1.42,2.73,2.59,2.59
0.28,-9.66,-1.41,1.68,1.68,1.61
0.32,-9.70,-1.42,1.19,1.12,1.12
0.30,-9.71,-1.44,1.96,1.96,2.03
0.27,-9.71,-1.44,2.45,2.45,2.52
0.29,-9.68,-1.45,2.10,2.10,2.03
0.31,-9.68,-1.43,1.47,1.47,1.40
0.30,-9.70,-1.43,1.75,1.75,1.75
0.30,-9.69,-1.43,1.96,1.96,1.96
0.29,-9.69,-1.44,2.03,1.96,1.96
0.26,-9.71,-1.43,1.89,1.82,1.82
0.29,-9.65,-1.44,1.96,1.89,1.89
0.29,-9.71,-1.42,1.82,1.82,1.89
0.28,-9.70,-1.45,1.89,1.75,1.82
0.29,-9.70,-1.43,1.68,1.68,1.68
0.29,-9.68,-1.44,1.82,1.82,1.75
0.30,-9.70,-1.41,2.17,2.17,2.03
0.28,-9.70,-1.42,2.03,2.03,1.89
0.29,-9.68,-1.43,1.61,1.61,1.61
0.29,-9.71,-1.43,1.61,1.68,1.68
0.30,-9.70,-1.45,1.96,1.89,1.89
0.32,-9.70,-1.41,2.17,2.17,2.17
0.28,-9.69,-1.42,2.10,1.96,1.96
0.29,-9.68,-1.44,1.68,1.61,1.54
0.27,-9.70,-1.44,1.61,1.61,1.68
0.30,-9.71,-1.44,2.10,2.10,2.10
0.29,-9.70,-1.42,2.10,2.10,2.10
0.28,-9.70,-1.41,1.75,1.75,1.75
0.31,-9.71,-1.44,1.54,1.54,1.54
0.28,-9.69,-1.45,2.10,2.03,2.03
0.29,-9.69,-1.43,2.38,2.38,2.38
0.28,-9.68,-1.41,1.82,1.75,1.75
0.30,-9.69,-1.43,1.47,1.40,1.40
0.31,-9.71,-1.44,1.68,1.68,1.68
0.29,-9.68,-1.45,2.17,2.17,2.24
0.30,-9.68,-1.42,2.10,2.10,2.10
0.30,-9.70,-1.41,1.61,1.61,1.61
0.30,-9.68,-1.45,1.89,1.89,2.17
0.30,-9.71,-1.44,2.31,2.31,2.31
0.30,-9.68,-1.44,1.89,1.89,1.75
0.30,-9.69,-1.42,1.47,1.47,1.47
0.28,-9.69,-1.42,2.24,2.17,2.17
0.27,-9.69,-1.41,1.61,1.61,1.54
0.29,-9.71,-1.42,1.68,1.68,1.68
0.29,-9.69,-1.43,2.03,2.03,2.03
0.29,-9.69,-1.43,2.24,2.24,2.24
0.28,-9.71,-1.44,1.89,1.82,1.68
0.29,-9.68,-1.44,1.68,1.68,1.68
0.29,-9.66,-1.43,2.03,1.96,1.96
0.29,-9.69,-1.43,2.10,1.96,1.96
0.29,-9.71,-1.42,1.96,1.75,1.75
0.31,-9.69,-1.45,1.68,1.68,1.68
0.32,-9.71,-1.44,2.10,2.17,2.17
0.29,-9.69,-1.41,1.89,1.82,1.82
0.28,-9.71,-1.44,1.68,1.61,1.61
0.29,-9.68,-1.43,1.89,1.75,1.75
0.30,-9.70,-1.44,2.10,2.24,2.24
0.29,-9.69,-1.43,2.10,1.89,1.89
0.29,-9.69,-1.43,1.40,1.40,1.40
0.30,-9.71,-1.44,1.75,1.75,1.75
0.30,-9.70,-1.43,2.31,2.31,2.24
0.29,-9.68,-1.42,2.24,2.24,2.17
0.31,-9.71,-1.43,1.68,1.68,1.68
0.31,-9.67,-1.43,2.31,2.31,2.31
0.26,-9.66,-1.43,2.17,2.17,2.24
0.28,-9.68,-1.42,1.47,1.40,1.40
0.28,-9.69,-1.44,1.61,1.82,1.82
0.31,-9.69,-1.44,2.17,2.17,2.17
0.27,-9.70,-1.43,1.96,1.96,2.03
0.29,-9.69,-1.44,1.75,1.75,1.75
0.30,-9.68,-1.42,1.68,1.68,1.68
0.30,-9.70,-1.44,1.89,1.89,2.03
0.28,-9.68,-1.45,1.61,1.61,1.61
0.29,-9.70,-1.45,2.03,1.96,1.96
0.34,-9.70,-1.44,1.89,1.89,1.89
0.29,-9.67,-1.42,1.82,1.75,1.75
0.28,-9.71,-1.43,1.68,1.75,1.75
0.30,-9.69,-1.44,1.68,1.68,1.68
0.31,-9.69,-1.42,2.24,2.24,2.24
0.28,-9.68,-1.40,2.24,2.03,2.03
0.28,-9.69,-1.42,1.47,1.54,1.54
0.29,-9.71,-1.46,1.68,1.68,1.68
0.30,-9.71,-1.43,2.17,2.17,2.45
0.29,-9.71,-1.42,2.24,2.24,2.24
0.28,-9.67,-1.43,1.68,1.68,1.47
0.26,-9.68,-1.44,1.47,1.47,1.61
0.31,-9.68,-1.42,1.82,1.82,2.10
0.28,-9.70,-1.44,2.17,2.17,2.17
0.31,-9.70,-1.41,1.89,1.89,1.82
0.27,-9.68,-1.45,1.40,1.40,1.40
0.30,-9.72,-1.45,1.68,1.68,1.68
0.30,-9.71,-1.44,2.10,2.10,2.31
0.28,-9.69,-1.42,2.10,2.10,2.10
0.30,-9.69,-1.44,1.54,1.54,1.54
0.30,-9.71,-1.44,1.68,1.75,1.75
0.29,-9.71,-1.43,2.17,2.17,2.17
0.29,-9.70,-1.43,1.96,1.96,1.96
0.29,-9.69,-1.44,1.68,1.68,1.68
0.28,-9.70,-1.44,1.68,1.68,1.68
0.31,-9.70,-1.41,1.82,1.89,1.89
0.29,-9.67,-1.42,2.03,2.10,2.10
0.29,-9.68,-1.45,1.89,1.89,1.75
0.27,-9.69,-1.42,1.61,1.61,1.61
0.30,-9.67,-1.44,1.82,1.82,1.75
0.30,-9.70,-1.41,2.03,2.03,2.17
0.28,-9.72,-1.41,1.82,1.82,1.82
0.29,-9.70,-1.41,1.54,1.68,1.68
0.30,-9.72,-1.43,1.82,1.89,1.89
0.29,-9.69,-1.43,2.10,2.10,2.03
0.30,-9.71,-1.41,2.10,2.10,2.03
0.31,-9.67,-1.43,1.82,1.82,1.82
0.29,-9.69,-1.44,1.61,1.61,1.75
0.30,-9.70,-1.44,1.89,1.89,1.89
0.29,-9.70,-1.40,2.03,2.03,2.03
0.31,-9.68,-1.44,2.03,2.03,2.03
0.31,-9.69,-1.42,1.75,1.75,1.75
0.29,-9.69,-1.42,1.75,1.75,1.75
0.28,-9.69,-1.45,1.96,1.96,1.96
0.29,-9.71,-1.44,2.17,2.17,2.10
0.31,-9.68,-1.43,1.89,1.89,1.89
0.30,-9.70,-1.44,1.61,1.54,1.54
0.30,-9.70,-1.44,1.82,1.82,1.82
0.27,-9.70,-1.45,2.03,2.24,2.24
0.29,-9.67,-1.42,1.96,1.96,1.96
0.29,-9.70,-1.42,1.61,1.61,1.61
0.31,-9.70,-1.44,1.68,1.68,1.75
0.30,-9.70,-1.43,1.96,1.96,1.96
0.30,-9.69,-1.43,2.10,2.10,1.96
0.29,-9.70,-1.43,1.75,1.68,1.61
0.30,-9.70,-1.43,1.68,1.61,1.61
0.29,-9.69,-1.42,1.75,1.96,1.96
0.30,-9.68,-1.41,1.96,1.96,1.82
0.31,-9.71,-1.43,1.61,1.61,1.61
0.29,-9.70,-1.44,1.82,1.82,1.82
0.28,-9.69,-1.45,2.10,2.10,2.10
0.29,-9.69,-1.43,2.17,2.03,2.03
0.29,-9.70,-1.43,1.54,1.54,1.54
0.29,-9.70,-1.45,1.82,1.82,1.82
0.32,-9.68,-1.43,2.03,2.03,1.96
0.30,-9.67,-1.44,1.68,1.68,1.68
0.28,-9.69,-1.44,2.03,2.03,2.03
0.28,-9.69,-1.43,1.96,2.10,2.10
0.29,-9.69,-1.41,1.75,1.75,1.68
0.29,-9.70,-1.40,1.61,1.61,1.68
0.30,-9.70,-1.44,1.96,1.96,1.96
0.29,-9.68,-1.42,2.17,2.10,2.10
0.29,-9.70,-1.41,1.89,1.82,1.68
0.29,-9.70,-1.43,1.54,1.47,1.47
0.30,-9.69,-1.45,1.75,1.75,1.75
0.29,-9.70,-1.43,2.17,2.17,2.03
0.30,-9.71,-1.43,1.68,1.68,1.61
0.29,-9.70,-1.44,1.75,1.75,1.75
0.26,-9.69,-1.44,1.96,2.03,2.03
0.29,-9.69,-1.43,1.96,1.96,1.96
0.29,-9.69,-1.42,1.61,1.61,1.61
0.28,-9.67,-1.42,1.75,1.75,1.75
0.28,-9.70,-1.45,2.03,2.03,2.10
0.28,-9.70,-1.43,2.10,2.10,2.10
0.31,-9.69,-1.45,1.61,1.61,1.61
0.29,-9.70,-1.44,1.82,1.82,1.82
0.28,-9.70,-1.45,2.03,2.03,2.03
0.27,-9.70,-1.43,1.96,1.96,1.96
0.30,-9.68,-1.43,1.75,1.75,1.75
0.32,-9.70,-1.43,1.82,1.82,1.82
0.30,-9.71,-1.43,1.96,1.96,1.96
0.28,-9.68,-1.41,1.89,1.89,1.89
0.30,-9.72,-1.42,1.75,1.75,1.75
0.29,-9.69,-1.43,1.82,1.82,1.82
0.30,-9.70,-1.45,2.03,2.03,1.96
0.29,-9.67,-1.44,1.96,1.96,1.96
0.29,-9.69,-1.44,1.75,1.82,1.82
0.28,-9.70,-1.42,1.89,1.89,1.89
0.30,-9.69,-1.42,1.96,1.82,1.82
0.29,-9.71,-1.43,1.89,1.89,1.89
0.29,-9.69,-1.44,1.82,1.82,1.82
0.27,-9.71,-1.44,1.75,1.75,1.75
0.30,-9.69,-1.44,1.96,2.10,2.10
0.28,-9.66,-1.43,1.96,1.96,1.96
0.29,-9.70,-1.43,1.82,1.82,1.82
0.30,-9.70,-1.43,1.89,1.89,1.89
0.30,-9.68,-1.45,1.96,1.96,1.96
0.27,-9.71,-1.37,1.89,1.89,1.89
0.30,-9.68,-1.41,1.82,1.82,1.82
0.29,-9.70,-1.42,1.82,1.75,1.75
0.28,-9.70,-1.44,1.96,1.89,1.89
0.27,-9.71,-1.44,2.03,1.96,1.96
0.28,-9.71,-1.43,1.96,1.96,1.96
0.29,-9.70,-1.43,1.75,1.75,1.75
0.28,-9.69,-1.43,1.75,1.75,1.75
0.31,-9.69,-1.43,1.96,2.03,2.03
0.28,-9.68,-1.44,1.96,1.96,1.75
0.29,-9.71,-1.43,1.89,1.82,1.96
0.31,-9.71,-1.43,1.82,1.75,1.75
0.30,-9.69,-1.43,1.96,1.96,1.89
0.30,-9.68,-1.42,1.89,1.89,1.89
0.28,-9.69,-1.42,1.82,1.82,1.96
0.28,-9.70,-1.45,1.75,1.75,1.75
0.29,-9.69,-1.41,1.96,1.96,1.96
0.30,-9.68,-1.41,1.89,1.89,1.89
0.28,-9.69,-1.42,1.82,1.82,1.89
0.31,-9.69,-1.42,1.75,1.75,1.68
0.31,-9.69,-1.42,1.89,1.89,1.89
0.27,-9.69,-1.43,1.96,1.96,1.96
0.29,-9.69,-1.44,1.82,1.75,1.75
0.31,-9.69,-1.43,1.75,1.75,1.75
0.28,-9.69,-1.42,1.89,1.89,1.82
0.29,-9.70,-1.41,2.03,2.17,2.03
0.31,-9.67,-1.40,1.82,1.82,1.82
0.30,-9.68,-1.42,1.68,1.68,1.68
0.29,-9.70,-1.44,1.96,1.96,1.96
0.28,-9.68,-1.41,1.96,1.75,1.75
0.30,-9.69,-1.42,1.75,1.75,1.75
0.29,-9.68,-1.45,1.75,1.75,1.75
0.28,-9.69,-1.43,2.03,1.96,1.96
0.30,-9.68,-1.41,1.96,1.89,1.89
0.28,-9.70,-1.41,1.75,1.75,1.75
0.30,-9.71,-1.42,1.68,1.68,1.68
0.28,-9.70,-1.44,1.82,1.82,1.82
0.29,-9.70,-1.42,2.03,1.96,1.96
0.28,-9.70,-1.40,1.82,1.82,1.82
0.29,-9.69,-1.44,1.89,1.89,1.75
0.30,-9.69,-1.42,1.89,1.89,1.89
0.29,-9.71,-1.44,1.96,1.96,1.96
0.29,-9.70,-1.44,1.82,1.82,1.82
0.31,-9.68,-1.41,1.82,1.82,1.82
0.28,-9.70,-1.43,1.82,1.82,1.82
0.29,-9.69,-1.43,1.89,1.96,1.96
0.28,-9.68,-1.41,1.96,1.96,1.89
0.27,-9.70,-1.41,1.75,1.75,1.75
0.30,-9.70,-1.43,1.82,1.82,1.82
0.30,-9.70,-1.41,1.96,1.96,1.96
0.30,-9.70,-1.43,1.89,1.89,1.89
0.29,-9.70,-1.44,1.82,1.89,1.89
0.30,-9.70,-1.41,1.82,1.82,1.82
0.28,-9.67,-1.43,1.96,1.96,1.89
0.29,-9.68,-1.44,1.82,1.82,1.82
0.29,-9.69,-1.43,1.82,1.82,1.82
0.30,-9.69,-1.43,1.89,1.89,1.89
0.30,-9.71,-1.40,2.03,2.03,2.03
0.29,-9.70,-1.44,1.68,1.68,1.61
0.28,-9.66,-1.45,1.89,1.75,1.75
0.33,-9.70,-1.42,1.96,1.96,1.89
0.30,-9.70,-1.42,1.96,1.89,1.82
0.30,-9.67,-1.45,1.68,1.68,1.68
0.28,-9.69,-1.45,1.89,1.89,1.89
0.29,-9.70,-1.44,1.82,1.96,1.96
0.29,-9.71,-1.44,2.03,2.03,2.03
0.29,-9.68,-1.41,1.82,1.82,1.82
0.29,-9.70,-1.43,1.61,1.61,1.82
0.29,-9.69,-1.42,1.89,1.96,1.96
0.29,-9.68,-1.44,1.96,2.03,2.03
0.30,-9.70,-1.43,1.82,1.82,1.82
0.28,-9.71,-1.42,1.89,1.89,1.89
0.25,-9.69,-1.42,1.82,1.82,1.82
0.26,-9.70,-1.44,1.96,1.96,1.96
0.27,-9.69,-1.43,1.75,1.75,1.75
0.30,-9.70,-1.44,1.82,1.82,1.82
0.28,-9.70,-1.42,1.75,1.75,1.75
0.30,-9.69,-1.45,1.82,1.82,1.82
0.28,-9.70,-1.41,1.82,1.82,1.82
0.30,-9.69,-1.42,1.96,1.96,1.96
0.30,-9.70,-1.41,1.82,1.82,1.82
0.29,-9.69,-1.44,1.96,1.96,1.96
0.29,-9.71,-1.42,1.96,1.96,1.96
0.27,-9.71,-1.44,1.82,1.82,1.82
0.29,-9.70,-1.43,1.82,1.82,1.82
0.28,-9.69,-1.44,1.82,1.82,1.68
0.29,-9.69,-1.44,1.82,1.82,1.82
0.29,-9.70,-1.45,1.75,1.75,1.82
0.28,-9.70,-1.40,1.75,1.75,1.75
0.31,-9.70,-1.43,1.96,1.96,1.96
0.29,-9.69,-1.43,1.96,1.96,1.96
0.30,-9.70,-1.44,1.75,1.75,1.75
0.30,-9.68,-1.41,1.75,1.75,1.82
0.31,-9.71,-1.44,1.82,1.82,1.89
0.29,-9.69,-1.45,1.89,1.89,1.89
0.30,-9.70,-1.43,1.96,1.96,1.96
0.29,-9.69,-1.44,1.75,1.75,1.75
0.28,-9.70,-1.43,1.75,1.75,1.89
0.32,-9.69,-1.44,1.82,2.03,2.03
0.30,-9.68,-1.41,1.82,2.03,2.03
0.29,-9.69,-1.42,1.82,1.82,1.82
0.29,-9.68,-1.41,1.82,1.75,1.75
0.29,-9.68,-1.43,1.89,1.75,1.75
0.29,-9.71,-1.43,1.82,1.82,1.82
0.29,-9.70,-1.41,1.82,1.82,1.82
0.29,-9.69,-1.43,1.75,1.75,1.75
0.29,-9.68,-1.44,1.89,1.89,1.89
0.29,-9.71,-1.44,1.75,1.89,1.89
0.31,-9.71,-1.42,1.96,1.89,1.89
0.30,-9.69,-1.44,1.96,1.96,1.89
0.28,-9.69,-1.43,1.82,1.82,1.82
0.29,-9.70,-1.42,1.82,1.82,1.82
0.27,-9.70,-1.42,1.96,1.89,1.89
0.29,-9.69,-1.42,1.89,1.82,1.82
0.30,-9.69,-1.43,1.82,1.75,1.75
0.29,-9.69,-1.43,1.89,1.89,1.89
0.28,-9.68,-1.43,1.89,1.96,1.96
0.29,-9.72,-1.41,1.82,1.82,1.82
0.29,-9.67,-1.42,1.75,1.89,1.89
0.28,-9.70,-1.44,1.82,1.75,1.75
0.28,-9.69,-1.42,1.89,1.89,2.03
0.32,-9.71,-1.42,1.89,1.89,1.89
0.29,-9.70,-1.42,1.75,1.75,1.75
0.30,-9.70,-1.42,1.89,1.89,1.89
0.29,-9.71,-1.42,2.03,2.03,2.03
0.32,-9.70,-1.42,1.82,1.82,1.82
0.28,-9.71,-1.41,1.82,1.82,1.82
0.29,-9.70,-1.43,1.75,1.75,1.82
0.28,-9.69,-1.45,1.89,1.96,1.96
0.28,-9.71,-1.43,1.96,1.96,1.96
0.31,-9.69,-1.45,1.82,1.68,1.68
0.29,-9.68,-1.43,1.82,1.68,1.89
0.31,-9.70,-1.44,1.89,1.89,1.82
0.30,-9.69,-1.45,1.96,1.82,1.82
0.30,-9.68,-1.43,1.82,1.82,1.82
0.29,-9.70,-1.45,1.82,1.82,1.89
0.28,-9.69,-1.42,1.89,1.82,1.82
0.30,-9.68,-1.42,1.96,1.96,1.96
0.27,-9.68,-1.41,1.89,1.89,1.75
0.31,-9.69,-1.43,1.82,1.75,1.75
0.29,-9.68,-1.42,1.89,1.96,1.89
0.30,-9.71,-1.42,1.96,1.96,1.89
0.29,-9.68,-1.41,1.82,1.82,1.96
0.30,-9.71,-1.41,1.82,1.82,1.68
0.29,-9.68,-1.44,1.75,1.75,1.75
0.29,-9.71,-1.44,1.89,1.82,1.82
0.28,-9.70,-1.42,1.82,1.82,1.89
0.28,-9.70,-1.43,1.82,1.82,1.82
0.31,-9.69,-1.44,1.82,1.82,1.89
0.29,-9.71,-1.44,1.82,1.82,1.82
0.29,-9.69,-1.43,1.75,1.75,1.75
0.31,-9.69,-1.43,1.68,1.68,1.68
0.32,-9.69,-1.43,1.89,1.82,1.82
0.30,-9.69,-1.44,1.89,1.96,1.96
0.29,-9.70,-1.44,1.75,1.89,1.89
0.30,-9.69,-1.44,1.82,1.75,1.75
0.30,-9.69,-1.43,1.96,1.96,1.96
0.29,-9.71,-1.43,1.89,1.82,1.82
0.29,-9.70,-1.44,1.89,1.75,1.75
0.30,-9.70,-1.44,1.89,1.89,1.82
0.30,-9.71,-1.43,1.82,1.82,1.82
0.28,-9.71,-1.42,1.89,1.89,1.89
0.28,-9.70,-1.43,1.89,1.89,1.89
0.29,-9.70,-1.43,1.82,1.82,1.82
0.29,-9.70,-1.43,1.82,1.82,1.82
0.30,-9.70,-1.42,1.89,1.82,1.82
0.29,-9.71,-1.39,1.82,1.82,1.82
0.29,-9.69,-1.43,1.96,1.89,1.89
0.28,-9.70,-1.43,1.82,1.82,1.82
0.30,-9.70,-1.45,1.68,1.68,1.75
0.30,-9.71,-1.42,1.89,1.89,1.89
0.31,-9.68,-1.42,1.82,1.82,1.82
0.29,-9.69,-1.42,1.75,1.75,1.75
0.31,-9.70,-1.45,1.82,1.75,2.03
0.28,-9.70,-1.42,1.96,1.89,1.89
0.29,-9.70,-1.43,1.82,1.82,1.82
0.30,-9.70,-1.42,1.68,1.68,1.82
0.29,-9.69,-1.44,1.82,1.82,1.89
0.28,-9.71,-1.43,1.82,1.82,1.82
0.29,-9.69,-1.41,1.82,1.82,1.82
0.29,-9.70,-1.41,1.89,1.96,1.75
0.29,-9.70,-1.43,1.89,1.89,1.89
0.32,-9.69,-1.42,1.82,1.82,1.82
0.29,-9.71,-1.45,1.75,1.75,1.82
0.29,-9.69,-1.41,1.96,1.89,1.89
0.32,-9.69,-1.42,1.89,1.89,1.82
0.28,-9.69,-1.45,1.68,1.68,1.68
0.29,-9.70,-1.42,1.68,1.68,1.75
0.27,-9.69,-1.42,1.96,1.96,2.03
0.28,-9.70,-1.43,1.75,1.75,1.75
0.29,-9.70,-1.44,1.61,1.68,1.68
0.30,-9.69,-1.42,1.96,1.89,1.89
0.30,-9.67,-1.42,1.96,2.03,2.03
0.29,-9.70,-1.42,1.96,1.96,1.75
0.29,-9.68,-1.45,1.68,1.68,1.75
0.28,-9.68,-1.44,1.82,1.82,1.82
0.29,-9.70,-1.43,1.89,1.89,1.96
0.30,-9.70,-1.43,1.82,1.82,1.82
0.29,-9.71,-1.45,1.75,1.75,1.75
0.28,-9.68,-1.44,1.96,1.96,1.96
0.28,-9.70,-1.43,1.82,1.89,1.89
0.28,-9.70,-1.43,1.75,1.68,1.68
0.28,-9.69,-1.44,1.82,1.82,1.89
0.29,-9.69,-1.44,1.89,1.89,1.89
0.29,-9.69,-1.43,1.96,1.96,1.96
0.29,-9.70,-1.43,2.03,1.96,1.96
0.31,-9.69,-1.43,1.82,1.75,1.75
0.31,-9.70,-1.45,1.68,1.68,1.75
0.29,-9.68,-1.43,1.89,1.89,1.96
0.30,-9.69,-1.41,1.96,1.96,1.96
0.26,-9.70,-1.44,1.96,1.82,1.82
0.27,-9.67,-1.43,1.75,1.68,1.68
0.32,-9.69,-1.42,1.82,1.82,1.82
0.30,-9.70,-1.42,2.03,1.96,2.03
0.28,-9.70,-1.42,1.96,1.96,1.96
0.29,-9.69,-1.42,1.75,1.75,1.75
0.32,-9.70,-1.43,1.75,1.75,1.75
0.28,-9.68,-1.42,1.96,1.96,1.96
0.29,-9.71,-1.41,2.03,1.89,1.89
0.27,-9.69,-1.44,1.89,1.89,1.68
0.28,-9.69,-1.44,1.82,1.82,1.82
0.30,-9.70,-1.43,1.82,1.82,1.82
0.27,-9.71,-1.44,2.03,2.03,2.03
0.29,-9.70,-1.43,1.89,1.89,1.89
0.28,-9.69,-1.42,1.82,1.82,1.82
0.27,-9.71,-1.42,1.75,1.82,1.82
0.30,-9.70,-1.43,1.89,1.89,1.89
0.29,-9.69,-1.43,1.89,1.89,1.89
0.28,-9.68,-1.45,1.82,1.68,1.68
0.31,-9.69,-1.44,1.82,1.89,1.89
0.27,-9.70,-1.43,1.89,1.89,1.89
0.29,-9.69,-1.42,1.89,1.89,1.89
0.30,-9.70,-1.40,1.89,1.89,1.89
0.26,-9.70,-1.43,1.96,1.96,1.96
0.30,-9.71,-1.42,1.68,1.68,1.68
0.31,-9.70,-1.43,1.96,1.96,1.75
0.31,-9.70,-1.45,1.96,1.96,1.96
0.28,-9.69,-1.44,1.82,1.82,1.82
0.28,-9.68,-1.43,1.82,1.82,1.82
0.30,-9.69,-1.44,1.89,1.89,1.89
0.27,-9.68,-1.40,2.03,2.03,2.03
0.31,-9.70,-1.43,1.96,1.96,1.96
0.28,-9.71,-1.43,1.82,1.82,1.82
0.27,-9.71,-1.44,1.89,1.89,1.89
0.30,-9.66,-1.41,1.96,1.96,1.96
0.29,-9.68,-1.41,1.89,1.89,1.89
0.30,-9.70,-1.44,1.89,1.89,1.89
0.29,-9.69,-1.43,1.82,1.89,1.89
0.27,-9.70,-1.44,1.89,1.89,1.82
0.28,-9.73,-1.42,1.89,1.96,1.96
0.32,-9.68,-1.42,1.82,1.82,1.89
0.30,-9.70,-1.42,1.82,1.82,1.68
0.30,-9.70,-1.41,1.82,1.82,1.82
0.29,-9.70,-1.41,1.89,1.89,1.82
0.28,-9.71,-1.44,1.89,1.89,1.89
0.29,-9.68,-1.45,1.75,1.75,1.75
0.29,-9.69,-1.44,1.89,1.82,1.82
0.31,-9.67,-1.44,1.96,1.96,2.03
0.30,-9.69,-1.42,1.89,1.89,1.89
0.28,-9.68,-1.43,1.75,1.75,1.75
0.29,-9.66,-1.43,1.75,1.75,1.75
0.29,-9.69,-1.43,1.89,2.03,2.03
0.30,-9.70,-1.44,1.96,1.96,1.96
0.28,-9.69,-1.41,1.82,1.75,1.75
0.29,-9.68,-1.45,1.68,1.68,1.89
0.30,-9.71,-1.43,1.75,1.75,1.75
0.28,-9.69,-1.43,1.96,1.96,1.96
0.29,-9.70,-1.41,1.75,1.75,1.75
0.29,-9.69,-1.42,1.82,1.82,1.82
0.30,-9.69,-1.44,1.82,1.96,1.96
0.28,-9.69,-1.43,1.96,1.96,1.96
0.29,-9.73,-1.41,1.75,1.75,1.75
0.30,-9.70,-1.43,1.82,1.89,1.89
0.30,-9.66,-1.44,2.03,2.03,2.03
0.28,-9.68,-1.42,1.89,1.75,1.75
0.29,-9.69,-1.43,1.82,1.68,1.68
0.30,-9.69,-1.45,1.82,1.82,1.82
0.29,-9.70,-1.42,2.10,2.03,2.03
0.27,-9.69,-1.41,2.03,2.10,2.10
0.28,-9.69,-1.41,1.68,1.68,1.68
0.30,-9.70,-1.44,1.61,1.61,1.61
0.30,-9.70,-1.45,2.10,2.10,2.10
0.30,-9.69,-1.45,2.17,2.17,2.17
0.31,-9.68,-1.41,1.68,1.68,1.68
0.31,-9.70,-1.42,1.33,1.33,1.33
0.31,-9.69,-1.43,1.89,1.89,1.89
0.29,-9.71,-1.43,2.31,2.31,2.24
0.32,-9.68,-1.41,2.10,2.10,2.10
0.30,-9.68,-1.41,1.61,1.61,1.61
0.32,-9.71,-1.43,1.54,1.54,1.54
0.29,-9.69,-1.44,2.03,2.17,2.17
0.30,-9.70,-1.43,2.24,2.24,2.24
0.33,-9.68,-1.38,1.82,1.82,1.75
0.29,-9.68,-1.45,1.40,1.47,1.47
0.31,-9.71,-1.42,1.75,1.89,1.89
0.30,-9.65,-1.39,2.59,2.59,2.38
0.29,-9.70,-1.41,1.61,1.61,1.40
0.26,-9.69,-1.43,1.40,1.40,1.47
0.31,-9.70,-1.45,1.82,1.82,1.82
0.31,-9.69,-1.44,2.52,2.45,2.45
0.29,-9.69,-1.39,2.31,2.31,2.17
0.30,-9.70,-1.41,1.05,1.05,1.05
0.29,-9.71,-1.43,1.19,1.61,1.61
0.28,-9.71,-1.41,2.52,2.52,2.73
0.30,-9.67,-1.40,2.17,2.17,2.17
0.27,-9.71,-1.42,1.05,0.98,0.98
0.29,-9.69,-1.43,1.33,1.47,1.47
0.30,-9.69,-1.44,2.38,2.38,2.59
0.30,-9.67,-1.41,2.38,2.38,2.38
0.30,-9.71,-1.43,1.33,1.26,1.33
0.28,-9.71,-1.43,2.17,2.38,2.38
0.28,-9.68,-1.42,2.45,2.45,2.45
0.29,-9.71,-1.42,1.89,1.89,1.89
0.30,-9.68,-1.43,1.19,1.12,1.12
0.28,-9.71,-1.44,1.82,1.82,1.82
0.32,-9.69,-1.42,2.52,2.52,2.52
0.27,-9.68,-1.40,1.82,1.82,1.82
0.29,-9.71,-1.45,1.33,1.33,1.33
0.31,-9.71,-1.43,1.82,1.82,1.82
0.30,-9.69,-1.41,1.61,1.61,1.61
0.26,-9.69,-1.43,1.40,1.40,1.40
0.28,-9.72,-1.44,2.03,2.03,2.03
0.29,-9.70,-1.43,2.31,2.31,2.45
0.27,-9.71,-1.40,2.03,1.89,1.89
0.28,-9.71,-1.43,1.33,1.33,1.33
0.28,-9.68,-1.44,1.54,1.54,1.61
0.28,-9.71,-1.44,2.03,1.96,1.96
0.29,-9.68,-1.43,2.31,2.31,2.38
0.31,-9.69,-1.42,1.96,1.96,1.82
0.28,-9.70,-1.42,1.47,1.47,1.40
0.30,-9.70,-1.43,1.54,1.54,1.61
0.27,-9.69,-1.44,2.31,2.31,2.31
0.29,-9.69,-1.41,2.03,2.03,2.03
0.28,-9.68,-1.43,1.54,1.40,1.40
0.29,-9.70,-1.42,1.54,1.54,1.54
0.30,-9.69,-1.43,1.96,1.96,1.96
0.28,-9.67,-1.43,2.24,2.03,2.03
0.31,-9.68,-1.40,1.75,1.75,1.75
0.30,-9.70,-1.45,1.54,1.40,1.40
0.29,-9.68,-1.45,1.96,1.96,1.96
0.27,-9.68,-1.43,2.24,2.24,2.24
0.30,-9.69,-1.42,1.89,1.82,1.82
0.29,-9.70,-1.43,1.54,1.47,1.47
0.30,-9.71,-1.43,1.68,1.68,1.96
0.29,-9.71,-1.41,1.89,1.89,1.82
0.28,-9.69,-1.43,1.68,1.68,1.54
0.29,-9.66,-1.44,1.75,1.75,1.75
0.28,-9.71,-1.42,2.17,2.17,2.17
0.31,-9.69,-1.44,2.10,2.10,2.10
0.26,-9.69,-1.42,1.68,1.54,1.54
0.31,-9.70,-1.44,1.61,1.61,1.61
0.30,-9.69,-1.41,2.03,2.17,2.17
0.28,-9.69,-1.41,1.96,1.96,1.96
0.29,-9.69,-1.42,1.61,1.61,1.61
0.30,-9.69,-1.43,1.68,1.68,1.75
0.29,-9.72,-1.43,2.10,2.10,2.10
0.27,-9.69,-1.44,2.17,2.17,2.17
0.28,-9.69,-1.42,1.75,1.75,1.75
0.28,-9.69,-1.45,1.54,1.54,1.54
0.31,-9.70,-1.45,1.75,1.75,1.89
0.31,-9.68,-1.43,2.17,2.17,2.17
0.29,-9.68,-1.42,2.03,1.89,1.89
0.28,-9.70,-1.40,1.68,1.68,1.61
0.28,-9.71,-1.44,1.61,1.61,1.61
0.30,-9.71,-1.43,1.89,1.89,2.03
0.28,-9.70,-1.43,2.17,2.17,2.17
0.30,-9.70,-1.42,1.82,1.82,1.75
0.29,-9.69,-1.43,1.61,1.61,1.61
0.29,-9.69,-1.42,1.82,1.75,1.75
0.29,-9.69,-1.43,2.03,2.03,2.10
0.31,-9.70,-1.42,1.89,1.89,1.89
0.29,-9.71,-1.41,1.82,1.82,1.82
0.30,-9.70,-1.45,1.75,1.75,1.75
0.28,-9.67,-1.44,2.10,2.10,2.10
0.30,-9.69,-1.42,2.03,1.96,1.96
0.28,-9.69,-1.43,1.82,1.82,1.82
0.29,-9.71,-1.39,1.61,1.61,1.61
0.28,-9.71,-1.43,1.96,1.96,1.89
0.28,-9.69,-1.42,1.68,1.68,1.68
0.29,-9.71,-1.44,1.82,1.82,1.82
0.30,-9.69,-1.41,1.96,1.89,1.89
0.29,-9.68,-1.43,1.96,1.89,1.89
0.28,-9.68,-1.43,1.75,1.82,1.82
0.29,-9.71,-1.41,1.68,1.89,1.89
0.28,-9.69,-1.44,1.96,1.96,1.96
0.29,-9.69,-1.41,2.03,2.03,2.03
0.30,-9.70,-1.41,1.89,1.89,1.68
0.30,-9.69,-1.43,1.75,1.75,1.75
0.28,-9.71,-1.44,1.89,1.82,1.82
0.29,-9.69,-1.44,1.89,1.89,1.89
0.28,-9.71,-1.43,1.96,1.89,1.89
0.28,-9.68,-1.42,1.82,1.96,1.96
0.28,-9.68,-1.42,1.75,1.75,1.75
0.29,-9.70,-1.42,1.89,1.89,1.96
0.32,-9.70,-1.44,1.82,1.82,1.82
0.28,-9.69,-1.44,1.89,1.89,1.89
0.31,-9.73,-1.45,1.89,1.89,1.89
0.31,-9.71,-1.42,1.89,1.89,1.89
0.31,-9.70,-1.42,1.82,1.82,1.82
0.30,-9.68,-1.43,1.82,1.82,1.82
0.29,-9.69,-1.43,1.89,1.89,1.89
0.30,-9.70,-1.41,1.96,1.96,1.96
0.27,-9.69,-1.46,1.96,1.96,1.82
0.29,-9.70,-1.44,1.82,1.82,1.82
0.30,-9.69,-1.44,1.75,1.75,1.75
0.29,-9.71,-1.45,1.75,1.89,1.89
0.28,-9.68,-1.44,2.03,1.96,2.03
0.31,-9.68,-1.44,1.89,1.89,1.89
0.27,-9.70,-1.42,1.89,1.89,1.89
0.27,-9.71,-1.42,1.89,1.89,1.89
0.30,-9.69,-1.44,1.89,1.82,1.82
0.30,-9.70,-1.43,1.75,1.75,1.75
0.30,-9.71,-1.44,1.89,1.89,1.89
0.31,-9.70,-1.43,1.89,1.82,1.82
0.29,-9.71,-1.42,1.82,1.89,1.89
0.30,-9.68,-1.43,1.82,1.82,1.82
0.30,-9.69,-1.42,1.68,1.89,1.82
0.30,-9.69,-1.43,1.89,1.89,1.96
0.30,-9.67,-1.41,1.96,1.96,1.96
0.33,-9.67,-1.43,1.82,1.89,1.89
0.29,-9.67,-1.42,1.68,1.68,1.68
0.29,-9.70,-1.44,1.96,1.82,1.82
0.30,-9.68,-1.43,2.03,2.03,2.03
0.29,-9.70,-1.42,1.89,1.96,1.96
0.30,-9.68,-1.41,1.68,1.68,1.68
0.27,-9.71,-1.44,1.75,1.75,1.89
0.28,-9.70,-1.43,1.96,1.75,1.75
0.32,-9.68,-1.44,2.10,1.89,1.89
0.30,-9.70,-1.41,1.82,1.68,1.68
0.29,-9.68,-1.44,1.61,1.61,1.75
0.30,-9.70,-1.44,1.75,1.75,1.75
0.31,-9.70,-1.44,1.96,2.10,2.10
0.31,-9.69,-1.43,2.03,2.03,2.03
0.28,-9.70,-1.42,1.75,1.75,1.75
0.29,-9.69,-1.44,1.68,1.68,1.68
0.27,-9.69,-1.44,1.89,1.89,1.89
0.30,-9.70,-1.45,2.03,2.03,2.03
0.29,-9.70,-1.44,1.89,1.89,1.89
0.28,-9.68,-1.43,1.68,1.68,1.68
0.30,-9.69,-1.42,1.75,1.75,1.89
0.29,-9.70,-1.44,2.10,2.10,2.03
0.28,-9.70,-1.43,1.89,1.89,1.89
0.29,-9.70,-1.40,1.61,1.68,1.68
0.27,-9.70,-1.43,1.82,1.82,1.75
0.30,-9.70,-1.45,2.03,2.03,2.03
0.31,-9.68,-1.43,1.89,1.89,1.89
0.30,-9.70,-1.41,1.89,1.96,1.96
0.27,-9.71,-1.42,1.96,1.89,1.89
0.30,-9.70,-1.43,1.75,1.75,1.75
0.28,-9.71,-1.45,1.82,1.89,1.82
0.28,-9.68,-1.43,2.03,2.03,1.96
0.30,-9.71,-1.42,2.10,2.10,2.10
0.30,-9.70,-1.42,1.68,1.68,1.68
0.29,-9.72,-1.44,1.75,1.75,1.75
0.31,-9.69,-1.43,2.10,2.10,2.10
0.30,-9.67,-1.43,2.10,2.10,2.03
0.29,-9.68,-1.42,1.75,1.75,1.75
0.28,-9.67,-1.44,1.47,1.47,1.47
0.28,-9.71,-1.43,1.75,2.03,2.03
0.31,-9.68,-1.44,2.17,2.24,2.24
0.27,-9.70,-1.43,1.89,1.75,1.75
0.30,-9.71,-1.41,1.47,1.47,1.47
0.28,-9.69,-1.45,1.82,1.75,1.75
0.30,-9.68,-1.45,2.24,2.17,2.17
0.30,-9.69,-1.42,2.24,2.24,2.24
0.31,-9.69,-1.42,1.61,1.61,1.61
0.29,-9.68,-1.45,1.61,1.61,1.61
0.30,-9.69,-1.44,1.75,1.75,1.75
0.31,-9.70,-1.41,2.10,2.10,2.10
0.28,-9.68,-1.41,1.82,1.82,1.82
0.29,-9.71,-1.42,1.54,1.54,1.54
0.28,-9.69,-1.42,1.82,1.82,1.82
0.28,-9.69,-1.43,2.10,2.03,2.10
0.29,-9.69,-1.42,1.89,1.89,1.89
0.30,-9.71,-1.42,1.61,1.61,1.61
0.31,-9.70,-1.44,1.75,1.82,1.82
0.29,-9.71,-1.42,1.96,1.96,2.17
0.30,-9.70,-1.41,2.10,1.96,2.03
0.30,-9.69,-1.41,1.68,1.68,1.68
0.28,-9.71,-1.43,1.61,1.61,1.61
0.30,-9.71,-1.43,1.96,1.96,1.89
0.30,-9.70,-1.42,2.03,2.03,2.03
0.28,-9.71,-1.42,1.75,1.75,1.68
0.27,-9.68,-1.42,1.75,1.75,1.75
0.29,-9.69,-1.43,1.96,2.10,2.10
0.30,-9.65,-1.43,2.03,2.03,2.03
0.29,-9.69,-1.42,1.61,1.68,1.68
0.28,-9.69,-1.43,1.61,1.61,1.75
0.29,-9.68,-1.41,2.10,2.10,2.10
0.30,-9.70,-1.44,2.03,2.03,2.03
0.30,-9.69,-1.43,1.68,1.61,1.61
0.28,-9.70,-1.44,1.68,1.68,1.68
0.28,-9.68,-1.42,1.96,1.96,1.96
0.30,-9.70,-1.43,2.10,2.10,2.10
0.29,-9.69,-1.42,2.10,2.10,2.10
0.29,-9.69,-1.42,2.03,2.03,2.24
0.26,-9.69,-1.43,1.75,1.75,1.75
0.27,-9.70,-1.43,1.61,1.61,1.61
0.29,-9.68,-1.44,1.96,1.96,1.96
0.30,-9.70,-1.42,2.10,2.10,2.17
0.29,-9.68,-1.42,1.96,1.96,1.82
0.27,-9.67,-1.45,1.61,1.61,1.61
0.29,-9.71,-1.43,1.89,1.89,1.75
0.28,-9.70,-1.45,2.03,2.10,2.10
0.27,-9.70,-1.42,1.96,1.96,1.96
0.30,-9.70,-1.42,1.68,1.68,1.68
0.29,-9.70,-1.44,1.61,1.61,1.75
0.29,-9.68,-1.45,2.03,2.03,2.03
0.30,-9.70,-1.41,2.10,1.96,1.96
0.31,-9.69,-1.42,1.96,1.96,1.82
0.27,-9.71,-1.44,1.47,1.47,1.47
0.29,-9.70,-1.43,1.82,1.96,1.96
0.28,-9.69,-1.41,2.10,2.10,2.10
0.32,-9.71,-1.42,2.03,2.03,2.03
0.29,-9.69,-1.43,1.75,1.75,1.68
0.29,-9.70,-1.42,1.68,1.54,1.54
0.30,-9.70,-1.43,1.68,1.89,1.89
0.31,-9.69,-1.41,1.96,2.03,1.89
0.30,-9.66,-1.40,1.68,1.68,1.68
0.29,-9.69,-1.42,1.61,1.61,1.61
0.29,-9.70,-1.43,1.89,1.89,2.10
0.29,-9.69,-1.43,2.17,2.17,2.17
0.30,-9.68,-1.42,1.82,1.68,1.68
0.28,-9.71,-1.43,1.61,1.47,1.47
0.30,-9.68,-1.44,1.89,1.96,2.10
0.27,-9.69,-1.44,2.03,2.03,2.03
0.28,-9.68,-1.40,1.89,1.89,1.68
0.30,-9.71,-1.44,2.17,2.17,2.17
0.31,-9.68,-1.44,2.24,2.24,2.24
0.30,-9.66,-1.41,1.96,1.96,1.96
0.29,-9.68,-1.41,1.54,1.47,1.47
0.33,-9.72,-1.44,1.75,1.75,1.75
0.30,-9.68,-1.44,2.03,2.03,2.17
0.27,-9.70,-1.40,2.10,2.10,2.10
0.29,-9.70,-1.40,1.68,1.68,1.68
0.28,-9.69,-1.41,1.33,1.33,1.33
0.31,-9.69,-1.43,2.03,2.03,2.10
0.29,-9.71,-1.43,2.10,2.10,2.10
0.28,-9.69,-1.42,1.54,1.54,1.54
0.28,-9.70,-1.43,1.40,1.40,1.40
0.33,-9.68,-1.45,2.17,2.17,2.31
0.30,-9.70,-1.41,2.31,2.24,2.24
0.27,-9.71,-1.42,1.33,1.26,1.26
0.30,-9.71,-1.42,1.33,1.33,1.68
0.32,-9.69,-1.44,2.24,2.45,2.45
0.31,-9.69,-1.43,2.52,2.52,2.38
0.27,-9.68,-1.43,1.54,1.47,1.47
0.28,-9.70,-1.43,1.19,1.19,1.33
0.29,-9.72,-1.44,2.38,2.38,2.45
0.30,-9.68,-1.42,2.03,1.54,1.47
0.31,-9.68,-1.44,1.19,1.19,0.98
0.33,-9.70,-1.44,1.96,1.96,2.03
0.32,-9.69,-1.43,2.66,2.66,2.38
0.29,-9.71,-1.44,1.54,1.54,1.54
0.32,-9.72,-1.43,2.59,2.52,2.52
0.30,-9.69,-1.39,2.24,2.24,2.03
0.27,-9.69,-1.39,1.19,1.19,1.19
0.29,-9.71,-1.44,1.19,1.26,1.61
0.32,-9.70,-1.42,2.45,2.45,2.45
0.30,-9.68,-1.43,2.52,2.45,2.45
0.30,-9.69,-1.41,1.68,1.40,1.33
0.27,-9.70,-1.42,1.05,1.12,1.12
0.32,-9.66,-1.49,2.94,2.94,2.94
0.27,-9.73,-1.34,0.77,0.77,1.82
0.26,-9.71,-1.42,2.66,2.66,1.05
0.34,-9.72,-1.41,0.84,0.84,0.84
0.32,-9.73,-1.50,1.12,2.31,2.31
0.26,-9.71,-1.40,0.77,0.77,1.40
0.30,-9.72,-1.42,1.96,2.73,2.73
0.31,-9.69,-1.37,1.89,1.89,1.89
0.31,-9.70,-1.44,1.33,1.33,2.38
0.22,-9.74,-1.34,2.03,2.03,2.03
0.28,-9.66,-1.47,2.73,2.73,2.73
0.30,-9.69,-1.36,1.68,1.68,1.68
0.28,-9.73,-1.39,1.54,1.54,1.54
0.28,-9.71,-1.39,1.68,1.68,1.68
0.32,-9.65,-1.44,1.54,1.54,1.54
0.28,-9.73,-1.43,2.03,2.03,2.03
0.27,-9.73,-1.41,1.82,1.82,1.82
0.29,-9.66,-1.43,1.75,1.75,1.75
0.27,-9.71,-1.44,1.40,1.40,1.54
0.27,-9.69,-1.37,2.45,2.45,2.45
0.27,-9.73,-1.32,0.77,0.77,0.77
0.27,-9.71,-1.51,2.45,2.45,2.45
0.29,-9.69,-1.39,1.47,1.19,1.19
0.27,-9.68,-1.45,1.47,1.96,1.96
0.25,-9.76,-1.35,0.56,0.56,0.56
0.31,-9.77,-1.45,2.52,2.52,2.52
0.33,-9.82,-1.44,0.77,0.77,0.77
0.30,-9.82,-1.45,1.33,1.33,1.33
0.26,-9.72,-1.52,3.50,3.50,3.50
0.41,-9.69,-1.37,1.26,1.61,3.71
0.31,-9.76,-1.50,2.31,0.91,0.91
0.28,-9.76,-1.39,1.12,1.12,0.77
0.32,-9.65,-1.53,2.10,2.52,2.52
0.36,-9.66,-1.34,0.91,0.91,0.91
0.23,-9.75,-1.49,1.89,1.89,1.89
0.28,-9.69,-1.35,1.12,1.12,1.12
0.35,-9.61,-1.46,2.87,2.87,2.87
0.30,-9.77,-1.38,1.12,1.12,1.12
0.29,-9.72,-1.44,2.31,2.31,1.54
0.34,-9.61,-1.40,2.17,1.82,1.82
0.28,-9.71,-1.45,1.40,1.40,1.40
0.26,-9.78,-1.41,1.75,1.75,1.61
0.33,-9.70,-1.43,2.38,2.38,2.38
0.32,-9.63,-1.43,1.96,1.96,1.96
0.27,-9.69,-1.39,1.54,1.54,1.54
0.31,-9.73,-1.43,1.89,1.89,1.89
0.32,-9.68,-1.42,2.38,2.38,2.38
0.31,-9.68,-1.41,1.89,1.75,1.75
0.29,-9.70,-1.42,1.61,1.61,1.61
0.28,-9.69,-1.44,1.75,1.82,1.82
0.29,-9.68,-1.42,1.89,1.96,2.03
0.27,-9.69,-1.43,2.10,2.10,2.10
0.31,-9.77,-1.29,0.14,0.14,0.77
0.30,-9.70,-1.50,0.98,0.98,4.34
0.24,-9.65,-1.38,1.26,1.26,1.26
0.33,-9.82,-1.52,2.80,2.80,2.80
0.29,-9.50,-1.53,2.38,3.01,3.01
0.28,-9.64,-1.35,0.56,0.56,1.26
0.23,-9.82,-1.39,0.07,0.07,0.07
0.31,-9.63,-1.45,3.64,3.29,3.29
0.33,-9.64,-1.42,1.82,1.82,1.82
0.25,-9.71,-1.44,1.12,0.77,0.77
0.31,-9.71,-1.42,1.19,1.33,1.33
0.33,-9.63,-1.47,3.15,3.22,3.22
0.28,-9.69,-1.39,2.03,1.82,1.82
0.27,-9.71,-1.43,1.54,1.40,1.40
0.30,-9.70,-1.42,1.12,1.12,1.12
0.28,-9.71,-1.48,2.03,2.17,2.17
0.30,-9.69,-1.43,2.52,2.52,2.52
0.35,-9.70,-1.43,2.52,2.52,1.33
0.33,-9.43,-1.56,0.35,0.35,0.35
0.34,-9.71,-1.43,2.87,2.87,2.87
0.39,-9.61,-1.46,4.62,4.62,3.22
0.38,-9.65,-1.36,2.45,2.45,2.45
0.22,-9.80,-1.39,1.05,1.05,0.00
0.25,-9.71,-1.52,1.26,1.26,1.82
0.27,-9.64,-1.39,2.38,2.38,2.38
0.27,-9.66,-1.38,1.40,1.40,1.40
0.29,-9.64,-1.40,1.40,0.77,0.77
0.28,-9.73,-1.42,3.15,3.15,3.01
0.32,-9.64,-1.42,2.17,2.17,2.17
0.27,-9.70,-1.44,1.05,1.05,1.05
0.31,-9.69,-1.45,2.80,2.80,2.80
0.29,-9.69,-1.39,1.82,1.68,1.26
0.30,-9.69,-1.41,0.56,0.56,0.56
0.30,-9.71,-1.45,2.38,2.38,2.38
0.30,-9.71,-1.45,3.08,3.08,3.08
0.30,-9.66,-1.38,2.24,2.24,1.89
0.31,-9.70,-1.45,1.40,1.40,1.40
0.30,-9.71,-1.44,2.66,2.87,2.87
0.28,-9.70,-1.42,2.45,2.45,2.24
0.27,-9.67,-1.40,1.12,1.12,1.12
0.31,-9.69,-1.43,1.33,1.33,1.33
0.30,-9.69,-1.44,2.24,2.94,2.94
0.28,-9.68,-1.40,2.45,2.45,2.45
0.29,-9.70,-1.44,0.84,0.77,0.77
0.19,-9.75,-1.49,0.56,0.56,0.56
0.31,-9.71,-1.47,3.01,3.01,3.64
0.37,-9.65,-1.37,3.85,3.85,3.85
0.30,-9.68,-1.36,0.56,0.56,0.56
0.22,-9.71,-1.43,-1.40,-1.40,-1.40
0.30,-9.74,-1.54,2.52,2.52,2.52
0.36,-9.72,-1.48,5.53,5.53,5.53
0.32,-9.61,-1.34,3.85,3.85,3.85
0.22,-9.67,-1.33,-1.68,-1.68,-2.24
0.26,-9.77,-1.51,-1.40,-1.40,-1.40
0.24,-9.65,-1.34,0.84,0.84,0.84
0.27,-9.72,-1.43,-1.89,-1.89,-1.89
0.35,-9.73,-1.53,2.59,3.29,3.29
0.30,-9.70,-1.47,5.53,5.53,5.53
0.24,-9.63,-1.34,1.33,0.63,0.63
0.29,-9.73,-1.42,-1.75,-1.75,-1.75
0.37,-9.73,-1.49,1.96,1.96,2.52
0.30,-9.71,-1.44,4.97,4.97,4.97
0.22,-9.67,-1.35,1.75,1.12,1.12
0.25,-9.70,-1.40,-1.19,-1.19,-1.40
0.33,-9.72,-1.46,2.31,2.31,2.59
0.31,-9.68,-1.41,4.48,4.48,4.48
0.26,-9.67,-1.38,0.77,0.77,0.77
0.33,-9.75,-1.47,1.61,1.61,2.03
0.31,-9.69,-1.40,4.48,4.48,4.48
0.24,-9.67,-1.37,2.52,2.52,2.03
0.27,-9.69,-1.42,-0.63,-0.63,-0.77
0.32,-9.73,-1.48,0.70,1.12,1.12
0.34,-9.70,-1.43,4.34,4.34,4.34
0.26,-9.66,-1.40,3.57,3.57,3.15
0.25,-9.71,-1.39,-0.21,-0.21,-0.35
0.31,-9.70,-1.45,-0.21,0.00,0.00
0.31,-9.71,-1.45,3.08,3.08,3.08
0.29,-9.67,-1.42,3.92,3.85,3.85
0.26,-9.68,-1.37,1.12,1.12,1.12
0.28,-9.71,-1.46,0.07,0.07,0.35
0.32,-9.71,-1.46,2.03,2.38,2.38
0.30,-9.73,-1.40,3.64,3.64,3.50
0.25,-9.66,-1.36,1.75,1.75,1.33
0.28,-9.68,-1.38,0.35,0.21,0.28
0.30,-9.71,-1.46,1.54,1.54,1.75
0.33,-9.70,-1.47,3.15,3.15,3.22
0.28,-9.70,-1.40,2.59,2.59,2.38
0.25,-9.70,-1.39,1.05,1.05,0.84
0.31,-9.71,-1.42,0.91,0.91,0.91
0.29,-9.72,-1.44,2.45,2.45,2.45
0.29,-9.70,-1.42,2.45,2.45,2.45
0.30,-9.69,-1.38,1.68,1.68,1.68
0.30,-9.68,-1.43,1.26,1.26,1.26
0.30,-9.70,-1.45,1.82,1.82,1.82
0.28,-9.71,-1.45,2.31,2.31,2.31
0.32,-9.70,-1.42,2.03,2.03,1.82
0.31,-9.71,-1.42,1.40,1.40,1.40
0.30,-9.72,-1.42,1.75,1.89,1.89
0.28,-9.71,-1.44,2.03,2.03,2.10
0.30,-9.69,-1.44,1.96,1.96,1.96
0.30,-9.71,-1.42,1.82,1.82,1.82
0.30,-9.73,-1.39,1.75,1.75,1.75
0.29,-9.69,-1.44,1.96,1.96,1.82
0.28,-9.70,-1.43,1.82,1.82,1.82
0.29,-9.70,-1.43,1.82,1.82,1.82
0.27,-9.68,-1.43,1.75,1.75,1.75
0.30,-9.70,-1.42,1.82,1.75,1.75
0.31,-9.70,-1.42,1.96,1.96,1.82
0.30,-9.70,-1.42,2.03,2.03,1.89
0.29,-9.71,-1.42,1.75,1.75,1.75
0.29,-9.70,-1.43,1.68,1.68,1.75
0.30,-9.70,-1.43,1.75,1.75,2.03
0.28,-9.69,-1.41,1.96,1.89,1.89
0.29,-9.71,-1.40,1.82,1.82,1.82
0.29,-9.70,-1.44,1.61,1.75,1.68
0.30,-9.69,-1.44,1.89,1.89,1.89
0.30,-9.69,-1.43,2.24,2.24,2.03
0.29,-9.70,-1.42,1.75,1.75,1.75
0.29,-9.68,-1.45,1.61,1.54,1.54
0.28,-9.72,-1.42,1.68,1.68,1.68
0.29,-9.71,-1.45,2.17,2.17,2.17
0.29,-9.69,-1.43,2.03,2.03,2.03
0.28,-9.70,-1.41,1.75,1.75,1.75
0.30,-9.70,-1.42,1.82,1.82,1.82
0.31,-9.70,-1.45,1.82,1.82,1.82
0.27,-9.70,-1.43,1.96,1.96,1.96
0.30,-9.70,-1.42,1.82,1.75,1.75
0.31,-9.69,-1.41,1.68,1.68,1.68
0.29,-9.70,-1.42,1.68,1.68,1.68
0.29,-9.69,-1.42,2.10,2.10,2.10
0.28,-9.70,-1.44,1.96,1.96,1.96
0.30,-9.71,-1.41,1.96,1.82,1.82
0.28,-9.67,-1.42,1.82,1.82,1.68
0.27,-9.69,-1.45,1.89,1.89,1.89
0.29,-9.72,-1.42,1.82,1.82,1.82
0.29,-9.69,-1.44,1.96,1.96,1.96
0.28,-9.71,-1.43,2.03,2.03,2.03
0.30,-9.69,-1.43,1.89,1.89,1.89
0.30,-9.69,-1.42,1.61,1.75,1.75
0.30,-9.69,-1.44,1.82,1.82,1.82
0.30,-9.71,-1.44,1.89,1.96,1.96
0.30,-9.69,-1.41,1.96,1.96,1.96
0.29,-9.69,-1.45,1.61,1.68,1.68
0.27,-9.70,-1.41,1.89,1.89,1.89
0.30,-9.69,-1.40,1.75,1.75,1.75
0.26,-9.71,-1.42,1.61,1.68,1.68
0.30,-9.70,-1.45,1.68,1.68,1.96
0.30,-9.71,-1.41,1.96,1.96,1.96
0.30,-9.70,-1.41,2.03,2.03,1.89
0.29,-9.70,-1.43,1.82,1.82,1.68
0.30,-9.70,-1.41,1.75,1.75,1.68
0.30,-9.70,-1.43,1.82,1.82,1.89
0.30,-9.69,-1.41,1.89,1.89,1.96
0.31,-9.70,-1.43,1.82,1.82,1.82
0.30,-9.69,-1.43,1.89,1.89,1.89
0.30,-9.69,-1.43,1.82,1.82,1.75
0.30,-9.69,-1.43,1.96,1.96,1.96
0.30,-9.71,-1.42,1.82,1.82,1.82
0.29,-9.69,-1.42,1.89,1.89,1.89
0.32,-9.73,-1.40,1.75,1.75,1.75
0.31,-9.70,-1.43,1.82,1.82,1.82
0.29,-9.71,-1.42,1.89,1.89,1.89
0.27,-9.67,-1.42,1.96,1.96,1.96
0.29,-9.70,-1.42,1.82,1.82,1.82
0.28,-9.68,-1.42,1.82,1.82,1.89
0.28,-9.69,-1.42,1.82,1.96,1.96
0.29,-9.67,-1.44,1.89,1.89,1.96
0.31,-9.69,-1.44,1.89,1.89,1.82
0.28,-9.70,-1.42,1.82,1.82,1.82
0.30,-9.69,-1.41,1.82,1.82,1.82
0.30,-9.71,-1.43,1.89,1.89,1.89
0.30,-9.69,-1.43,1.89,1.89,1.89
0.30,-9.71,-1.42,1.96,1.89,1.89
0.31,-9.70,-1.41,1.89,1.82,1.82
0.30,-9.70,-1.41,1.75,1.75,1.75
0.28,-9.71,-1.44,1.82,1.82,1.82
0.29,-9.71,-1.45,1.89,1.89,1.89
0.28,-9.69,-1.44,1.89,1.89,1.89
0.30,-9.70,-1.41,1.89,1.89,1.89
0.26,-9.71,-1.43,1.82,1.68,1.68
0.28,-9.70,-1.44,1.75,1.75,1.75
0.29,-9.71,-1.43,2.03,2.03,1.96
0.28,-9.71,-1.44,2.03,2.03,2.03
0.30,-9.68,-1.44,1.68,1.68,1.68
0.29,-9.69,-1.43,1.82,1.82,1.82
0.29,-9.71,-1.45,1.89,1.89,1.89
0.30,-9.69,-1.41,2.03,2.03,2.03
0.30,-9.69,-1.43,1.89,1.89,1.89
0.33,-9.71,-1.42,1.75,1.75,1.89
0.32,-9.72,-1.42,1.75,1.61,1.61
0.28,-9.69,-1.45,1.89,1.89,1.96
0.31,-9.69,-1.42,2.03,1.96,2.03
0.31,-9.69,-1.44,2.10,2.10,2.10
0.31,-9.71,-1.41,1.89,1.89,1.89
0.28,-9.68,-1.43,1.68,1.68,1.68
0.30,-9.69,-1.44,1.75,1.75,1.75
0.29,-9.71,-1.44,1.96,1.96,1.89
0.30,-9.69,-1.44,2.03,2.03,2.03
0.31,-9.68,-1.40,1.82,1.82,1.68
0.28,-9.71,-1.42,1.61,1.61,1.61
0.29,-9.72,-1.42,1.82,2.03,2.03
0.30,-9.70,-1.41,2.24,2.17,2.17
0.26,-9.71,-1.40,1.68,1.68,1.61
0.29,-9.70,-1.42,1.54,1.54,1.54
0.30,-9.71,-1.45,1.96,1.96,1.89
0.28,-9.69,-1.43,2.24,2.24,2.24
0.30,-9.68,-1.42,2.10,1.89,1.89
0.28,-9.69,-1.41,1.54,1.47,1.47
0.30,-9.69,-1.42,1.68,1.68,1.68
0.29,-9.70,-1.44,2.17,2.17,2.17
0.27,-9.70,-1.43,1.89,1.89,1.89
0.27,-9.71,-1.42,1.47,1.54,1.54
0.30,-9.71,-1.44,1.75,1.75,1.75
0.31,-9.70,-1.42,2.17,2.17,2.17
0.28,-9.68,-1.41,1.96,1.89,1.89
0.30,-9.67,-1.43,1.68,1.68,1.82
0.31,-9.70,-1.43,1.75,1.82,1.82
0.29,-9.70,-1.42,2.10,2.17,2.17
0.31,-9.70,-1.44,1.89,1.82,1.82
0.29,-9.68,-1.44,1.61,1.61,1.61
0.28,-9.67,-1.43,1.75,1.75,1.89
0.31,-9.70,-1.44,2.10,2.10,2.10
0.30,-9.71,-1.42,2.03,1.82,2.10
0.31,-9.71,-1.41,1.75,1.61,1.61
0.28,-9.70,-1.43,1.68,1.68,1.75
0.28,-9.69,-1.43,1.96,1.96,2.03
0.30,-9.70,-1.43,1.89,1.89,1.89
0.31,-9.70,-1.42,1.89,1.82,1.82
0.29,-9.69,-1.44,1.68,1.68,1.68
0.27,-9.70,-1.43,1.82,1.82,1.82
0.28,-9.70,-1.43,2.03,1.82,1.82
0.28,-9.68,-1.43,1.82,1.82,1.82
0.29,-9.70,-1.44,2.03,1.96,1.96
0.28,-9.69,-1.43,1.96,1.96,1.89
0.31,-9.69,-1.42,1.75,1.75,1.82
0.29,-9.69,-1.43,1.75,1.75,1.82
0.28,-9.71,-1.42,1.96,1.96,1.96
0.28,-9.70,-1.43,2.03,1.96,1.96
0.29,-9.71,-1.42,1.89,1.82,1.82
0.29,-9.67,-1.42,1.82,1.75,1.75
0.30,-9.71,-1.42,1.89,1.89,1.82
0.28,-9.67,-1.41,2.03,2.03,2.03
0.28,-9.69,-1.43,1.96,1.96,1.89
0.29,-9.72,-1.45,1.75,1.75,1.75
0.29,-9.70,-1.41,1.82,1.82,1.82
0.28,-9.70,-1.42,1.96,1.96,1.96
0.30,-9.69,-1.41,1.89,1.89,1.89
0.28,-9.70,-1.43,1.82,1.68,1.68
0.29,-9.71,-1.42,1.82,1.82,1.82
0.30,-9.69,-1.45,1.89,1.89,2.03
0.28,-9.69,-1.42,2.03,2.03,2.03
0.30,-9.70,-1.42,1.68,1.68,1.68
0.29,-9.69,-1.43,1.68,1.68,1.68
0.30,-9.69,-1.42,1.96,1.89,1.89
0.31,-9.70,-1.43,2.03,2.03,2.03
0.28,-9.70,-1.42,1.89,1.89,1.89
0.30,-9.68,-1.42,1.75,1.75,1.75
0.29,-9.69,-1.44,2.17,2.17,2.17
0.28,-9.70,-1.44,1.89,1.89,1.89
0.26,-9.69,-1.43,1.61,1.61,1.61
0.29,-9.70,-1.43,1.82,1.82,1.82
0.31,-9.71,-1.43,2.24,2.17,2.17
0.31,-9.70,-1.43,2.03,2.03,2.03
0.28,-9.70,-1.43,1.68,1.68,1.68
0.29,-9.70,-1.43,1.54,1.54,1.54
0.32,-9.71,-1.44,1.89,2.10,2.10
0.30,-9.71,-1.41,2.17,2.17,2.10
0.29,-9.69,-1.41,1.75,1.75,1.75
0.28,-9.70,-1.44,1.54,1.54,1.61
0.29,-9.71,-1.42,1.96,2.10,2.03
0.30,-9.69,-1.43,2.24,2.24,2.10
0.29,-9.71,-1.43,1.82,1.89,1.89
0.28,-9.71,-1.45,1.54,1.54,1.54
0.28,-9.71,-1.44,1.82,1.82,1.96
0.29,-9.69,-1.41,2.10,2.10,2.10
0.31,-9.70,-1.42,2.03,1.96,1.96
0.28,-9.68,-1.43,1.61,1.61,1.61
0.28,-9.68,-1.41,1.82,1.82,1.82
0.30,-9.70,-1.44,2.10,2.03,2.03
0.30,-9.70,-1.41,2.03,2.03,2.03
0.28,-9.70,-1.42,1.61,1.68,1.68
0.28,-9.71,-1.42,1.96,1.96,1.96
0.29,-9.67,-1.43,1.82,1.82,1.82
0.27,-9.70,-1.44,1.47,1.61,1.61
0.30,-9.70,-1.45,1.82,1.82,1.82
0.32,-9.67,-1.41,2.31,2.31,2.31
0.29,-9.71,-1.40,2.10,2.03,2.03
0.29,-9.69,-1.40,1.61,1.26,1.26
0.31,-9.70,-1.46,1.33,1.26,1.61
0.30,-9.67,-1.41,2.31,2.31,2.31
0.29,-9.68,-1.40,1.47,1.33,1.33
0.28,-9.68,-1.44,0.98,0.98,1.26
0.30,-9.73,-1.45,2.31,2.31,2.45
-8.60,-10.43,-0.27,63.77,-1.33,-19.46
-10.49,-12.66,5.15,-414.75,-321.44,-321
8.93,-11.54,-9.72,-213.64,-208.39,-208
3.55,-16.15,-6.48,-38.99,-56.91,-57.407.25,-5.56,0.71,-62.86,-62.86,-72.03
4.70,-6.13,4.04,-108.71,-108.71,-136.50
4.88,-8.52,-3.13,-137.55,-137.55,-131.6
5.59,-8.95,-3.01,-155.68,-161.49,-161.4
6.07,-12.04,-3.72,-182.77,-182.77,-157
9.05,-13.18,-3.46,35.14,35.14,53.06
14.78,-8.07,-2.92,79.45,85.68,85.68
11.22,-8.54,0.84,1.68,-6.93,-6.93
11.67,-7.32,0.08,-56.84,-56.84,-48.23
12.52,-9.92,1.11,33.39,33.39,19.81
9.06,-5.24,3.88,62.09,62.09,48.09
5.07,-2.90,1.61,92.96,92.96,101.08
4.11,-2.97,0.57,159.74,177.66,170.24
4.55,-3.12,2.49,280.77,280.77,396.13
3.83,-2.77,3.89,355.95,412.02,412.02
4.60,-8.42,2.72,295.40,295.40,194.04
7.08,-6.11,5.01,129.92,129.92,114.24
2.76,-3.56,1.65,78.19,30.59,47.18
2.93,-5.26,3.64,123.06,117.39,117.81
3.03,-7.62,1.99,75.25,75.25,60.48
2.02,-9.76,2.18,38.01,38.01,37.17
2.11,-12.79,1.74,120.47,120.47,120.47
1.79,-14.41,0.85,168.77,168.77,168.77
1.65,-14.58,-0.99,162.96,162.96,162.961.90,-14.83,-1.26,119.00,119.00,119.001.54,-13.84,0.69,96.74,96.74,96.74
2.74,-13.07,1.35,68.81,68.81,68.81
2.44,-11.05,4.81,59.08,59.08,59.01
2.34,-9.67,6.00,66.36,66.36,66.36
1.44,-8.36,6.81,91.77,91.77,91.77
-0.65,-6.66,7.75,86.38,86.38,86.38
-1.26,-5.85,8.10,55.93,55.93,38.01
-4.78,-1.75,8.86,67.41,67.41,67.41
-5.95,0.70,10.12,95.62,97.58,97.58
-7.92,1.80,11.15,105.63,105.63,104.44
-9.52,3.37,10.12,110.11,110.11,115.64
-7.08,4.52,9.97,92.68,92.68,90.65
-4.96,7.40,9.75,99.47,102.90,105.28
-2.51,7.93,9.02,117.95,117.95,121.73
-0.22,7.27,8.83,113.68,113.68,110.25
-1.81,7.04,11.28,10.36,10.36,4.62
-4.53,6.00,11.28,-33.11,-33.11,-37.59
-6.76,5.86,9.22,-60.41,-60.41,-62.30
-8.44,4.80,8.48,-75.67,-75.67,-76.30
-10.11,3.85,7.91,-83.51,-86.73,-88.13
-8.97,2.11,7.25,-106.96,-106.96,-111.23
-7.76,2.22,6.70,-134.12,-134.12,-139.23
-6.14,0.95,6.03,-136.29,-136.29,-136.29
-4.57,-1.34,6.35,-104.58,-104.58,-104.5
-1.84,-3.39,6.67,-102.20,-106.05,-106.0
0.01,-4.72,6.67,-113.68,-113.68,-113.68
1.04,-5.43,6.80,-112.28,-112.28,-111.09
1.73,-6.31,6.90,-89.39,-89.39,-89.39
3.51,-8.39,7.47,-69.79,-69.79,-69.79
5.73,-11.34,7.87,-42.49,-42.49,-37.10
6.03,-14.16,7.75,1.47,14.42,14.42
4.43,-19.42,6.95,54.53,54.53,62.51
2.84,-23.10,5.56,61.04,61.04,61.04
1.93,-15.12,3.11,-52.08,-52.08,-47.32
2.67,-12.36,2.84,8.33,8.33,8.33
2.54,-11.53,4.15,53.20,53.20,53.20
2.55,-11.81,5.46,70.56,70.56,71.61
1.84,-11.33,6.27,74.06,74.06,74.06
1.13,-9.53,7.23,67.20,67.20,66.36
-0.13,-7.98,7.22,50.40,50.40,47.67
-1.18,-6.06,6.56,43.19,43.19,43.19
-3.04,-4.35,6.47,46.06,47.81,47.81
-5.37,-2.11,6.39,58.52,58.52,61.04
-7.95,0.73,7.05,68.53,68.53,68.53
-10.99,2.92,8.15,63.63,58.94,58.94
-11.91,4.81,8.85,56.84,53.06,53.06
-11.03,6.68,8.88,76.44,80.22,80.22
-7.47,8.04,9.87,120.54,127.40,127.40
-4.69,8.37,11.70,161.56,161.56,162.61
-1.07,7.54,13.71,145.95,145.95,135.31
-0.11,7.48,13.51,97.58,97.58,82.39
-2.15,7.57,13.65,42.07,42.07,32.83
-4.91,5.92,13.75,-0.49,-0.49,-0.49
-7.94,5.49,11.74,-70.21,-70.21,-70.21
-9.56,6.61,9.49,-97.16,-97.16,-97.16
-9.88,7.24,7.27,-104.23,-102.27,-102.27
-8.51,5.18,6.17,-87.57,-82.39,-82.39
-8.21,3.06,6.09,-70.14,-70.14,-70.35
-6.55,-0.10,6.89,-83.51,-93.17,-98.56
-4.30,-1.95,6.82,-133.98,-133.98,-133.9
-2.33,-3.56,6.66,-138.46,-138.11,-131.6
-0.63,-5.27,6.66,-112.56,-108.85,-99.89
1.53,-5.76,6.49,-81.34,-81.34,-78.89
2.91,-6.06,6.96,-70.07,-70.07,-70.07
3.78,-7.45,7.99,-53.06,-53.06,-53.06
4.37,-9.60,8.23,-37.17,-35.63,-35.63
5.08,-12.38,7.40,-25.06,-25.06,-22.68
5.28,-14.50,6.47,-7.07,-7.07,-7.07
5.69,-20.00,4.70,24.01,27.65,27.65
2.62,-24.67,2.58,31.08,25.27,17.64
-1.63,-22.10,0.52,-27.16,-38.85,-38.85-0.47,-15.64,1.28,-92.54,-92.54,-90.793.01,-12.15,2.38,-65.17,-56.00,-56.00
4.99,-9.21,5.09,25.90,25.90,34.86
5.04,-10.19,5.96,82.46,82.46,86.31
3.35,-10.86,6.11,99.75,100.52,100.52
2.17,-11.35,5.82,85.33,85.33,70.77
0.51,-10.08,5.71,42.49,42.49,39.41
0.14,-7.34,6.30,29.89,27.72,27.72
-0.29,-3.77,7.23,41.93,41.93,46.41
-4.60,-2.32,5.91,100.10,100.10,98.14
-6.04,0.35,7.90,85.75,85.75,85.75
-8.08,2.18,10.67,64.19,64.19,61.74
-8.55,2.65,9.29,41.23,41.23,41.23
-7.76,4.01,9.04,55.37,58.94,58.94
-3.10,5.13,12.14,126.63,126.63,128.38
-1.94,4.84,12.80,113.96,113.96,113.96
-1.78,4.67,11.08,38.29,38.29,20.37
-2.60,4.41,11.97,4.27,4.27,1.05
-3.65,3.51,12.97,-23.80,-23.80,-23.80
-5.00,4.95,11.25,-55.09,-55.09,-55.09
-6.39,6.05,9.89,-66.43,-66.43,-68.18
-7.20,7.54,9.68,-85.33,-85.96,-85.96
-8.58,6.78,9.58,-69.30,-69.30,-65.80
-5.97,3.64,8.04,-63.56,-66.99,-66.99
-4.09,2.68,7.50,-93.31,-99.26,-102.48
-4.70,0.22,7.25,-127.33,-127.33,-130.41
-5.97,-1.68,6.37,-127.75,-127.75,-127.7
-4.16,-4.06,6.48,-113.54,-113.54,-113.5
-1.60,-5.40,6.63,-113.61,-113.47,-113.4
0.43,-5.67,6.38,-100.17,-100.17,-100.17
1.70,-6.84,6.28,-69.09,-53.69,-53.69
2.67,-8.88,6.72,-33.46,-33.18,-33.18
3.88,-10.38,7.28,-32.55,-32.55,-31.36
5.28,-17.72,5.59,40.04,40.04,49.14
5.99,-26.18,3.58,95.62,95.62,101.50
-3.76,-28.53,1.31,81.06,81.06,69.44
-5.02,-22.71,1.49,-56.70,-75.46,-75.464.30,-7.94,5.33,-60.34,-60.34,-60.34
6.42,-6.74,6.11,34.44,45.78,45.78
5.19,-9.21,5.07,104.79,104.79,109.06
2.85,-11.02,3.89,113.47,113.47,107.59
-0.12,-11.50,3.24,85.54,85.54,81.76
-1.34,-9.89,4.55,62.58,62.58,60.20
-0.18,-6.17,7.59,45.71,45.71,44.87
-0.81,-3.90,9.18,47.46,47.46,49.77
-2.50,-3.24,7.98,71.68,71.68,71.68
-5.08,-1.62,6.91,102.27,104.93,104.93
-6.41,-0.37,7.76,97.23,97.23,93.66
-6.22,1.14,9.91,50.82,50.82,43.61
-6.17,2.10,11.97,-1.19,-1.19,-7.35
-8.11,3.82,9.80,0.28,0.28,4.62
-7.85,5.17,8.63,71.33,71.33,71.33
-5.13,4.75,11.16,113.12,113.12,113.12
-2.10,5.10,9.83,102.06,102.13,100.80
-1.37,5.55,12.13,86.87,86.87,86.87
-1.88,5.21,12.53,45.36,38.50,38.50
-2.69,4.32,13.86,-16.17,-16.17,-16.17
-4.68,5.15,13.84,-46.90,-49.49,-49.49
-6.14,6.34,11.49,-58.73,-58.73,-58.73
-6.74,7.11,9.68,-71.19,-73.29,-74.34
-7.04,6.56,9.71,-83.86,-83.86,-83.86
-6.37,4.72,9.28,-100.24,-103.04,-103.04
-6.21,2.94,7.83,-120.96,-120.96,-126.84
-5.62,0.39,6.74,-132.79,-132.79,-133.00
-5.99,-1.98,6.41,-122.50,-119.56,-119.5
-4.61,-4.52,6.65,-114.45,-115.99,-118.1
-2.55,-5.30,6.82,-120.82,-121.10,-121.1
-0.69,-5.66,6.75,-121.31,-120.89,-120.8
0.51,-5.91,7.18,-104.93,-103.46,-103.46
1.71,-6.78,7.55,-76.30,-76.30,-74.06
2.20,-8.14,7.81,-51.66,-49.70,-49.70
2.94,-9.44,7.54,-43.12,-43.12,-47.11
3.55,-10.47,6.92,-41.09,-41.09,-39.48
2.89,-12.23,6.23,-31.29,-28.07,-28.07
2.10,-14.31,3.85,8.75,8.75,8.75
2.14,-18.56,2.64,30.66,30.52,30.52
-2.22,-20.39,1.15,16.03,16.73,16.73
-4.49,-19.23,1.16,-26.25,-26.25,-34.44-1.64,-15.48,1.86,-58.59,-57.75,-57.751.58,-11.72,3.74,-29.19,-29.19,-22.47
3.54,-9.69,5.60,28.21,34.79,34.79
3.28,-9.72,5.90,67.13,67.13,70.70
2.03,-10.04,5.10,89.81,89.81,91.70
0.91,-10.50,4.85,96.88,96.88,96.11
0.07,-10.08,4.85,91.07,91.07,91.07
-0.22,-9.06,5.32,75.46,75.46,75.46
-0.46,-7.09,5.47,64.96,64.96,64.96
-1.41,-4.50,5.62,77.91,77.91,77.91
-2.17,-2.04,6.06,90.51,90.51,90.51
-3.23,-1.63,7.32,98.49,98.49,98.49
-4.78,-1.40,8.78,69.44,69.44,63.77
-6.81,1.86,9.19,36.82,36.82,35.14
-6.87,5.42,9.70,44.52,44.52,59.85
-5.64,5.83,11.77,77.49,77.49,77.49
-6.29,3.53,13.48,83.37,83.37,83.37
-6.41,2.34,12.39,64.12,64.12,64.12
-0.55,6.15,11.95,83.23,83.23,81.27
-2.18,4.98,12.91,30.24,30.24,24.08
-3.68,4.74,13.16,-9.03,-12.74,-12.74
-3.57,5.96,12.05,-22.47,-22.47,-22.47
-4.13,5.64,11.28,-37.80,-37.80,-41.30
-6.75,5.08,10.93,-64.05,-66.92,-66.92
-7.68,4.37,9.81,-83.16,-83.16,-83.16
-6.12,4.49,8.61,-95.34,-96.95,-96.95
-5.46,3.60,8.34,-100.45,-99.96,-99.96
-5.60,0.89,8.15,-86.80,-86.80,-86.80
-5.31,-1.79,8.20,-81.97,-81.97,-81.97
-1.97,-3.86,6.64,-120.75,-121.59,-121.5
-0.07,-4.96,6.29,-120.26,-118.23,-118.21
0.11,-5.71,6.41,-102.69,-102.69,-102.13
3.88,-5.95,7.20,-98.77,-98.77,-98.77
5.16,-6.72,7.72,-90.02,-90.02,-88.06
4.94,-8.29,7.56,-64.47,-64.47,-61.53
4.21,-10.32,6.71,-49.35,-47.11,-47.11
3.42,-12.63,5.84,-33.11,-33.11,-39.41
2.15,-14.96,5.03,-23.03,-20.72,-20.72
1.66,-17.64,4.29,-10.99,-11.83,-11.83
-0.73,-19.27,3.35,-17.50,-35.42,-20.44-0.99,-18.26,1.49,-56.42,-56.42,-59.640.08,-15.29,1.08,-62.23,-62.23,-62.02
1.56,-13.15,1.58,-31.64,-31.64,-25.69
2.39,-11.68,2.97,24.92,24.92,30.66
2.58,-11.92,3.57,53.34,53.34,56.84
1.69,-12.35,3.45,76.30,76.30,76.30
0.72,-11.75,3.15,77.35,77.35,76.65
0.34,-10.47,3.45,73.92,73.92,72.52
0.93,-8.33,4.55,66.78,66.78,66.78
0.77,-5.80,5.04,69.37,69.37,71.33
-0.42,-4.62,4.93,88.69,88.69,88.69
-2.33,-2.81,4.91,106.19,112.35,112.35
-2.36,-0.29,7.48,115.43,115.43,115.43
-2.88,0.49,9.66,83.86,82.74,82.74
-5.35,1.19,9.14,53.83,53.83,53.83
-7.40,2.22,8.13,42.35,42.35,42.35
-6.24,4.33,8.83,60.62,66.01,66.01
-5.04,5.01,11.62,100.31,103.32,103.32
-4.69,4.38,13.46,121.03,121.03,115.29
-4.34,3.60,12.95,106.82,106.82,105.07
-2.65,4.66,11.99,97.93,97.93,95.62
-0.95,5.39,11.79,78.82,78.82,78.82
-1.16,5.58,12.65,33.74,27.58,27.58
-2.87,4.23,13.96,-54.95,-54.95,-58.31
-4.58,4.03,11.99,-73.99,-73.99,-73.99
-5.81,3.73,10.39,-93.17,-99.40,-99.40
-7.49,3.55,9.76,-99.47,-99.47,-99.47
-6.26,2.39,9.89,-99.89,-102.27,-102.27-4.96,2.42,10.09,-115.43,-115.43,-115.4
-5.13,1.46,9.61,-127.75,-128.52,-128.52
-4.89,-0.17,8.31,-104.86,-104.86,-101.7
-3.30,-2.71,7.53,-94.57,-94.57,-96.46
-1.44,-4.49,7.23,-119.91,-119.91,-119.9
-0.39,-4.97,7.00,-134.61,-134.61,-137.4
1.00,-5.23,6.67,-147.49,-141.96,-141.96
1.68,-5.91,5.67,-122.36,-115.78,-112.35
1.90,-7.65,5.42,-95.34,-95.34,-94.85
2.43,-8.54,5.34,-91.63,-91.63,-92.54
2.58,-11.69,2.38,-60.55,-60.55,-60.55
2.11,-12.87,1.71,-33.32,-29.96,-29.96
1.42,-15.25,0.88,-15.82,-15.82,-12.25
-0.28,-17.30,0.35,1.12,1.12,-0.70
-1.68,-18.61,-0.50,-19.88,-19.88,-18.97
-1.60,-17.57,-0.67,-17.64,-17.50,-17.50
-0.22,-15.84,-0.03,1.68,6.02,6.02
0.57,-14.45,0.46,56.56,56.56,56.56
0.68,-13.98,0.66,86.45,89.53,89.53
0.55,-13.35,0.89,105.77,105.77,106.89
0.10,-12.52,1.46,109.90,110.18,110.18
-0.03,-10.79,2.46,110.88,110.88,110.110.06,-8.97,3.39,114.10,114.10,115.29
-0.27,-6.85,3.91,123.06,123.06,130.27
-0.85,-4.79,4.35,140.98,141.89,143.50
-2.25,-3.12,6.25,147.28,146.16,146.16
-3.33,-1.63,7.40,131.88,126.28,123.13
-4.91,1.15,8.47,99.40,99.40,95.41
-6.19,2.06,8.75,85.12,85.12,84.07
-7.07,4.83,9.19,102.41,102.41,102.41
-6.58,6.93,11.91,121.59,121.59,121.52
-6.35,6.84,13.86,119.63,119.63,119.77
-3.46,6.44,14.34,108.43,108.43,107.10
-1.02,7.10,13.81,94.29,91.21,91.21
-0.96,6.62,13.75,54.04,42.14,42.14
-2.06,5.51,13.78,-2.80,-2.80,-10.08
-3.24,4.15,13.31,-56.28,-66.36,-66.36
-6.72,3.62,10.05,-80.15,-80.15,-80.85
-5.46,2.87,9.03,-87.22,-87.22,-90.23
-4.94,2.48,9.03,-109.62,-109.62,-109.62
-5.52,1.00,8.85,-109.69,-109.69,-109.69
-4.23,-2.35,8.45,-105.91,-105.91,-108.0
-2.86,-3.32,7.32,-124.32,-124.32,-124.3
-1.09,-3.92,7.24,-132.79,-132.79,-132.7
0.30,-4.97,6.59,-134.05,-134.05,-134.05
1.09,-6.18,6.16,-123.20,-123.20,-123.20
1.32,-7.05,5.89,-113.89,-112.49,-112.49
1.78,-8.18,5.44,-104.02,-103.39,-101.15
2.25,-9.60,5.03,-95.06,-93.87,-93.87
2.71,-10.38,4.47,-81.34,-74.27,-74.27
2.82,-11.44,3.75,-62.79,-59.71,-59.71
1.74,-12.47,2.73,-35.42,-32.48,-32.48
0.37,-14.63,2.41,-20.51,-20.51,-16.87
-0.79,-16.78,1.57,-9.17,-9.17,-10.15
-1.59,-17.32,0.41,-22.47,-22.47,-23.45-1.80,-16.66,-0.18,-24.64,-24.64,-24.64
-0.93,-15.12,0.66,-11.06,-4.06,-0.56
0.31,-13.55,1.65,24.92,29.54,29.54
1.29,-13.57,1.54,67.20,67.20,70.77
1.71,-13.77,1.10,86.94,86.94,89.32
1.34,-13.73,-0.41,110.11,110.11,112.350.27,-13.32,-0.29,124.81,124.81,124.81-0.60,-11.38,0.96,130.83,131.32,131.81-0.49,-8.55,2.89,135.66,135.94,135.94
-0.06,-6.71,4.36,139.72,139.72,139.72
-0.64,-4.45,5.41,135.24,135.24,136.85
-2.52,-1.48,6.68,125.30,125.30,125.30
-3.94,-0.21,7.93,114.03,114.03,111.37
-5.72,0.73,8.14,95.83,95.83,95.83
-7.70,2.74,8.32,70.56,66.43,66.43
-9.32,6.29,10.25,83.65,85.68,85.68
-6.33,8.29,15.69,116.41,106.89,106.89
-4.15,7.00,15.95,102.90,100.66,100.66
-2.31,7.18,14.49,91.70,91.70,86.80
-1.98,7.92,13.91,47.74,47.74,41.44
-2.95,7.12,13.15,-16.94,-16.94,-34.86
-6.04,4.62,10.22,-96.46,-96.46,-96.46
-7.62,3.56,9.50,-93.80,-93.80,-92.26
-7.22,2.14,8.86,-79.17,-79.17,-79.17
-5.75,1.54,8.27,-89.25,-89.25,-89.25
-3.52,-3.31,8.16,-112.49,-112.49,-113.2
-2.15,-4.08,7.65,-124.18,-124.18,-124.1
-0.48,-4.78,7.70,-130.83,-130.83,-130.8
0.47,-5.88,7.50,-125.02,-125.02,-122.50
1.11,-7.42,7.69,-114.31,-114.31,-114.31
1.51,-8.85,7.47,-113.61,-113.61,-113.61
1.91,-9.07,6.45,-115.85,-116.34,-116.34
2.62,-9.25,4.50,-114.03,-108.36,-108.36
2.84,-10.16,2.79,-94.29,-89.95,-82.18
1.61,-12.17,2.17,-67.76,-65.24,-62.72
0.35,-14.33,2.05,-56.70,-56.70,-54.67
-3.01,-16.12,-1.43,-46.90,-46.90,-44.80
-2.55,-16.56,-2.68,-30.03,-30.03,-27.58
-1.65,-15.67,-1.56,-13.44,-7.21,-3.92
-0.42,-14.00,0.76,16.38,16.38,19.95
0.57,-12.97,1.65,47.81,47.81,59.43
1.49,-12.49,1.50,82.32,82.32,84.98
1.27,-12.69,1.64,96.60,96.60,98.35
0.36,-12.74,2.25,106.47,106.47,108.08
0.28,-12.14,2.74,110.74,110.74,110.95
0.40,-8.69,2.76,114.80,114.80,115.50
0.32,-7.91,3.13,121.59,121.59,121.59
-0.16,-6.11,4.08,135.17,134.61,134.61
-0.90,-4.18,6.08,144.69,144.69,143.50
-1.06,-1.69,8.04,121.80,121.80,117.95
-2.54,-0.62,8.51,98.35,98.35,94.78
-4.78,0.26,6.65,91.98,91.98,92.12
-5.84,1.30,6.80,84.70,80.43,80.43
-6.46,3.64,9.26,73.01,70.77,70.77
-7.16,6.03,12.83,64.68,64.68,63.77
-6.18,7.29,15.96,75.74,75.74,78.26
-3.90,6.77,16.77,96.04,98.77,99.47
-1.98,6.05,16.05,87.92,87.92,85.61
-2.14,6.10,14.47,39.41,39.41,39.41
-3.07,4.93,13.32,-32.97,-32.97,-32.97
-4.28,4.21,12.26,-59.85,-63.49,-63.49
-4.52,3.99,10.58,-78.68,-80.99,-81.76
-5.38,3.51,9.22,-85.12,-85.12,-85.40
-6.32,2.68,9.14,-85.61,-85.61,-85.96
-5.74,1.77,9.44,-95.97,-95.97,-98.14
-5.59,1.31,9.27,-113.40,-116.13,-116.13
-5.02,0.28,8.67,-125.79,-126.21,-126.21
-3.69,-1.31,7.98,-126.21,-125.65,-125.6
-3.30,-2.88,7.39,-124.11,-124.11,-124.10
0.33,-6.80,6.18,-125.30,-124.46,-124.462
0.58,-8.70,3.68,-106.82,-106.82,-105.142
0.50,-10.27,3.64,-83.58,-83.58,-80.92
1.28,-12.50,4.20,-66.71,-66.71,-63.63
-0.35,-14.77,2.82,-47.46,-47.46,-47.46-1.97,-16.30,0.89,-37.87,-37.87,-37.87-3.47,-17.58,-2.00,-57.89,-59.01,-59.01
-2.17,-15.87,-2.35,-59.29,-57.33,-57.33
-0.00,-12.21,0.33,14.56,20.44,20.44
0.14,-11.64,0.91,59.92,59.92,64.75
-0.12,-12.13,1.07,87.99,105.91,89.67
-0.52,-12.53,1.09,92.54,92.54,92.54
-0.45,-11.61,1.00,94.43,94.43,94.43
-0.30,-10.00,1.85,102.41,103.11,103.11-0.26,-9.04,2.55,108.78,113.05,113.05
-0.28,-7.16,3.17,121.17,121.87,121.87
-0.81,-5.57,4.05,131.81,133.77,134.40
-1.41,-3.91,4.49,129.78,126.84,125.09
-2.06,-2.44,5.09,99.82,99.82,99.82
-2.37,-1.16,6.37,83.09,87.50,61.74
-3.75,0.66,7.08,47.25,47.25,47.25
-4.13,1.71,6.32,30.59,30.59,30.59
-5.59,2.07,5.20,83.86,105.42,105.42
-7.50,3.64,5.76,200.27,311.08,311.08
-7.37,9.04,9.83,361.13,505.12,505.12
-4.21,12.36,2.28,710.22,728.42,728.42
-11.54,-8.87,29.69,320.74,317.80,317.80
-4.42,7.79,8.22,180.11,167.93,167.93
-3.24,7.72,6.96,186.13,186.13,195.09
-1.84,8.24,9.08,214.76,212.31,212.31
-2.60,7.68,9.84,158.06,135.03,128.10
-3.73,6.85,9.72,82.88,82.88,74.97
-2.22,6.58,7.57,176.82,176.82,176.82
-2.89,7.52,8.37,223.93,223.93,223.93
-2.99,5.53,7.76,207.06,198.31,198.31
-3.92,9.48,10.54,191.73,191.73,271.95
-5.88,9.79,-2.82,292.67,292.67,239.68
-4.94,3.47,10.47,99.82,99.82,99.82
-1.68,6.25,16.29,83.16,70.98,70.98
-6.70,8.39,6.58,133.77,125.37,94.92
-59.67,66.47,9.85,170.17,170.17,1.33
-3.80,5.22,-1.58,-54.74,-54.74,-54.74
-5.76,11.43,-1.47,-105.35,-105.35,-105.00
-7.07,3.17,4.31,-124.39,-124.39,-150.64
-6.29,5.10,2.41,-106.61,-106.61,-106.61
-6.65,4.52,2.68,-153.93,-153.93,-153.93
-6.67,3.86,3.37,-155.26,-157.85,-157.85
-6.72,3.45,3.57,-176.61,-178.43,-178.43
-6.82,2.76,4.05,-191.45,-196.35,-196.35
-13.55,-7.37,6.72,-487.13,-487.13,-352.00
-11.16,0.35,8.05,-270.97,-270.97,-254.5
-7.03,-2.80,4.33,-127.61,-127.61,-183.1
-6.51,-5.56,8.51,-253.68,-327.18,-327.1
-4.76,-2.56,5.91,-117.67,-136.71,-136.7
-5.14,-5.64,3.47,-186.48,-186.48,-173.3
-6.05,-6.59,5.36,-76.23,-93.10,-97.30
-3.89,-6.59,3.25,-45.57,-9.24,5.95
-4.80,-6.58,5.06,32.34,32.34,35.00
-4.78,-6.89,3.82,78.12,78.12,90.51
-4.99,-4.39,4.53,103.53,106.96,106.96
-6.47,-2.49,6.66,65.52,46.27,46.27
-8.25,-3.27,6.17,-118.37,-114.31,-114.3
-8.26,-5.27,5.66,-77.63,-77.63,-81.27
-7.27,-6.10,3.78,-79.87,-71.96,-64.47
-5.62,-5.98,4.50,-24.85,-22.68,-24.15
-5.08,-6.48,5.45,-40.32,-35.49,-32.62
-4.95,-7.04,4.75,2.73,13.93,16.94
-4.86,-6.39,5.38,16.52,16.52,16.52
-5.30,-6.43,5.22,25.06,27.09,27.09
-5.64,-5.94,5.47,20.65,17.22,17.22
-6.03,-6.03,5.53,12.25,10.08,10.08
-5.89,-6.03,5.75,-3.29,-3.29,-6.86
-5.63,-6.02,5.39,-10.15,-10.15,-10.15
-6.25,-6.93,5.26,-27.16,-26.39,-26.39
-4.95,-6.22,5.56,-8.40,-7.91,-7.91
-4.46,-7.13,4.68,-8.19,-8.19,-4.55
-4.47,-8.20,4.82,8.54,10.85,10.85
-5.49,-5.58,6.58,3.64,3.64,38.92
-5.80,-5.57,5.42,-18.90,-18.90,-19.11
-5.71,-6.08,5.75,4.06,4.06,-11.06
-5.28,-6.37,5.47,-26.04,-26.04,-21.00
-5.17,-6.80,5.54,-36.05,-34.16,-34.16
-5.15,-7.03,5.53,-28.70,-28.70,-40.11
-4.27,-8.03,4.07,-11.48,6.44,0.91
-4.38,-7.90,5.60,-4.06,-4.06,-7.14
-5.01,-6.35,5.22,27.86,27.86,31.43
-5.49,-5.26,5.74,22.82,19.39,19.39
-5.42,-6.03,7.28,-5.46,-5.46,-5.46
-6.60,-6.03,5.58,3.08,3.08,3.08
-5.27,-6.08,5.30,-16.17,-16.17,-16.17
-4.48,-6.71,5.31,-14.49,-16.59,-16.59
-4.50,-5.73,5.36,-13.58,-12.95,-12.95
-4.65,-6.98,4.37,-6.79,-6.79,3.71
-4.57,-8.21,5.61,6.02,6.02,6.02
-4.92,-7.23,5.53,28.00,23.87,23.87
-5.15,-6.92,5.32,12.53,12.53,12.53
-5.82,-5.15,7.17,2.45,2.45,-17.08
-4.44,-6.84,4.44,-18.41,-21.35,-21.35
-4.94,-7.70,5.63,-10.22,-10.22,-10.22
-4.28,-6.99,5.45,-8.61,4.27,-6.37
-4.53,-7.03,5.14,4.62,-1.82,-1.82
-3.64,-6.27,5.48,10.36,10.36,4.90
-5.14,-7.53,5.02,8.61,9.94,9.94
-4.65,-6.37,5.72,16.66,16.66,11.76
-4.80,-6.75,4.73,2.10,2.10,7.21
-5.36,-6.77,5.25,11.20,4.13,-0.14
-4.78,-6.68,5.22,-9.59,-9.59,-9.59
-5.35,-6.82,5.51,-3.78,-4.48,-4.48
-5.01,-6.92,5.35,-4.48,-4.48,-4.48
-4.11,-6.29,4.91,-3.01,-16.31,-16.31
-4.48,-7.25,5.10,-16.10,-11.55,-11.55
-4.52,-7.10,5.48,5.18,5.18,1.96
-4.29,-6.66,5.32,12.11,12.11,6.23
-5.01,-7.33,6.01,2.24,-1.68,-1.68
-4.76,-7.45,5.19,0.98,7.07,7.07
-4.60,-6.53,5.20,6.79,-2.03,-2.03
-4.34,-5.80,5.81,-17.43,-17.43,-17.43
-4.50,-8.93,4.54,-24.78,1.54,1.54
-3.40,-6.56,4.59,0.00,1.96,1.96
-4.40,-7.18,5.26,-7.70,-5.53,-5.53
-4.52,-7.34,5.14,16.24,16.24,16.24
-4.58,-7.10,5.24,8.40,8.40,9.24
-5.05,-7.27,5.60,-1.40,-1.40,-1.40
-4.36,-6.98,5.23,-1.47,-1.47,-1.47
-4.28,-6.95,5.23,-9.80,-8.54,-8.54
-4.48,-7.21,5.39,-5.11,-5.11,-5.11
-4.15,-7.16,5.05,6.30,7.00,7.00
-4.23,-6.99,5.27,0.77,0.77,0.14
-4.24,-7.14,5.15,9.17,9.10,9.10
-4.51,-7.12,5.16,6.37,6.37,6.37
-4.59,-7.14,5.37,10.29,10.29,10.29
-4.71,-7.01,5.13,5.32,3.78,3.78
-4.68,-6.94,5.25,0.35,0.35,0.21
-4.53,-6.98,5.22,-3.57,-3.57,-3.57
-4.78,-7.39,5.23,-1.19,-1.19,-1.19
-4.29,-6.83,5.25,1.75,1.75,1.75
-4.86,-7.26,5.49,-8.96,-8.96,-8.96
-4.19,-7.11,5.00,24.29,24.29,24.29
-4.58,-6.90,3.93,6.65,6.65,6.65
-4.25,-6.49,5.37,-18.97,-18.97,-18.97
-4.54,-7.03,6.40,-3.22,-8.61,-8.61
-4.01,-7.03,5.80,4.55,4.55,-3.22
-5.09,-7.57,5.81,5.04,5.04,5.04
-4.09,-6.90,4.97,-1.12,0.35,-4.83
-3.85,-6.82,4.88,-1.96,4.48,-0.07
-5.04,-7.39,5.36,0.00,0.00,2.59
-3.73,-6.69,4.84,3.22,4.55,4.55
-4.24,-7.68,5.61,-0.63,-0.63,-0.42
-5.05,-7.39,5.55,-2.52,-2.52,-2.38
-4.02,-6.94,4.86,0.35,-1.54,-0.07
-4.59,-7.19,5.60,2.59,2.59,-0.98
-3.65,-6.65,4.84,1.68,1.68,1.68
-4.17,-7.15,5.28,8.96,3.57,3.57
-5.33,-7.40,5.65,-5.04,-5.04,-3.01
-3.66,-6.18,5.50,-10.43,-10.43,-10.43
-4.20,-7.18,4.98,-8.82,-8.82,-13.58
-4.52,-7.70,5.43,-15.05,-15.05,-11.69
-4.26,-7.81,5.17,11.69,11.69,11.55
-4.08,-7.05,5.00,10.99,10.99,10.99
-4.01,-6.96,4.60,10.43,10.43,10.43
-4.59,-7.14,5.51,12.88,10.01,10.01
-4.64,-7.32,5.37,21.63,18.69,18.69
-4.78,-5.88,5.56,2.87,3.22,3.22
-5.18,-6.73,5.36,4.97,4.97,11.13
-5.18,-7.98,5.70,17.99,17.99,17.99
-4.50,-6.16,4.91,9.03,9.03,9.03
-5.83,-7.03,5.69,-3.78,-3.78,-3.64
-4.84,-6.50,5.23,-7.21,-7.21,-8.33
-5.13,-7.08,5.16,-15.12,-15.12,-12.18
-4.37,-6.72,5.13,-3.01,-2.45,-2.45
-4.80,-7.08,5.16,8.05,9.24,9.24
-4.77,-6.81,5.20,10.15,10.08,10.08
-4.47,-6.54,5.16,8.05,8.05,3.08
-4.75,-6.79,5.20,-2.03,-2.03,-1.75
-5.67,-7.72,4.56,17.64,17.64,35.56
-4.91,-6.56,5.12,-0.35,-2.87,-2.87
-4.92,-6.68,5.18,8.12,9.17,9.17
-5.11,-6.79,5.38,-11.41,-11.69,-11.69
-4.84,-6.84,5.38,1.33,1.33,-0.49
-4.95,-6.90,4.92,-6.79,-6.79,-3.99
-4.78,-6.80,5.29,7.63,5.74,5.74
-4.74,-6.92,4.95,4.69,4.69,7.00
-3.09,-8.65,2.23,-23.38,-23.38,34.86
-7.29,-5.50,6.81,42.00,42.00,6.30
-4.01,-6.67,4.37,-0.84,-0.84,6.79
-5.75,-6.31,5.38,-20.02,-26.39,-26.39
-4.71,-8.02,5.35,-25.90,-25.90,-25.90
-3.51,-6.92,5.12,-14.63,-12.32,-12.32
-3.42,-5.84,4.65,-45.57,-28.28,-28.28
-3.31,-6.94,5.02,20.16,20.16,21.91
-3.95,-7.53,5.32,-3.43,-3.43,1.19
-4.04,-7.07,4.96,35.21,35.21,26.18
-4.15,-6.24,5.12,3.71,3.71,6.51
-4.16,-5.30,5.67,4.20,4.20,4.20
-4.81,-6.46,5.25,-27.93,-27.93,-27.93
-4.71,-7.22,4.72,-9.94,-9.94,-9.94
-4.12,-7.34,5.26,-3.64,-3.64,-3.64
-4.40,-6.24,5.35,8.54,9.52,9.52
-4.00,-6.23,4.61,-3.92,0.49,2.52
-4.03,-7.27,4.98,-2.24,-2.38,-2.38
-4.22,-7.63,5.22,12.11,11.55,11.55
-4.49,-7.37,5.07,5.18,7.63,7.63
-4.39,-7.05,4.99,9.52,5.53,5.53
-4.67,-7.15,5.18,-2.03,1.05,1.05
-4.28,-7.67,5.33,5.39,5.39,5.39
-4.34,-7.47,5.59,-18.20,-18.41,-18.41
-3.96,-6.99,4.69,1.54,-2.31,-2.31
-3.68,-6.92,4.70,10.29,10.29,7.28
-3.72,-6.38,5.13,1.54,1.54,1.54
-3.68,-6.36,5.46,4.62,4.62,2.03
-3.83,-7.37,4.77,13.58,13.58,18.34
-4.37,-7.15,5.38,-16.87,-0.35,-0.35
-4.15,-6.94,4.91,-3.64,-3.64,-2.17
-4.45,-7.19,5.55,-14.84,-14.70,-11.90
-3.91,-7.21,4.78,11.41,11.41,11.62
-4.12,-6.72,4.91,11.97,11.97,11.97
-4.99,-7.88,6.45,21.21,21.21,24.85
-4.96,-6.39,4.63,53.62,53.62,53.62
-5.58,-6.32,4.95,7.70,7.70,7.70
-5.22,-6.93,5.73,-3.08,-3.08,-8.89
-5.70,-7.02,5.58,9.66,9.66,-1.19
-5.52,-6.44,5.42,-29.61,-29.61,-29.61
-5.19,-6.20,4.90,-15.61,-14.00,-14.00
-5.18,-6.61,5.32,-24.50,-24.50,-24.50
-4.51,-7.17,5.08,-11.97,-11.97,-11.97
-4.46,-7.36,4.78,-4.34,-4.34,-4.34
-4.54,-6.71,5.02,13.44,13.44,13.44
-4.78,-6.69,5.02,10.92,10.92,10.92
-5.48,-7.00,5.67,10.92,10.92,10.92
-5.10,-6.51,5.25,9.24,9.24,6.65
-5.22,-7.04,5.41,-5.81,-5.81,-5.81
-5.21,-6.61,5.27,1.19,1.19,1.19
-5.21,-6.73,5.52,-8.47,-8.47,-8.47
-4.82,-6.78,5.21,-4.69,-4.69,-4.69
-4.66,-6.64,5.10,-5.88,-5.60,-5.60
-4.73,-6.90,5.19,-1.47,-0.77,-0.77
-4.69,-6.83,5.13,7.28,7.28,7.77
-4.69,-6.79,5.25,7.35,7.07,7.49
-4.94,-6.90,5.29,7.14,7.14,6.51
-4.96,-6.66,5.21,12.46,12.46,12.46
-5.12,-6.67,5.44,0.21,-1.19,-1.19
-5.17,-6.82,5.30,3.29,3.29,2.73
-5.10,-6.63,5.11,-0.21,-0.21,-0.21
-5.16,-6.45,5.24,2.38,2.38,2.38
-5.18,-6.36,5.47,0.49,0.49,-4.06
-5.31,-6.74,5.33,-1.12,-1.12,-3.85
-4.95,-7.20,5.40,-9.03,-9.03,-9.03
-5.03,-6.93,5.30,-8.05,-8.05,-10.01
-4.69,-6.90,5.09,-6.23,-6.23,-6.23
-4.59,-6.98,5.06,-6.93,-6.93,-5.11
-4.53,-6.79,4.99,1.26,1.26,1.40
-4.57,-6.83,5.22,2.10,2.10,2.10
-4.60,-6.62,5.29,8.75,8.75,4.41
-4.56,-6.97,4.98,6.93,6.93,4.97
-4.74,-6.98,5.26,-0.56,-0.56,-0.56
-4.82,-6.96,5.19,4.48,4.48,5.32
-4.92,-6.81,5.25,7.21,6.16,6.16
-4.92,-6.82,5.23,1.54,1.54,2.38
-4.97,-6.83,5.30,-0.28,-0.28,-0.28
-4.89,-6.83,5.19,-1.75,-1.75,-1.75
-4.85,-6.89,5.19,-1.12,-1.12,-1.12
-4.83,-6.94,5.19,0.84,0.84,0.84
-4.80,-6.90,5.18,2.73,2.73,2.73
-4.76,-6.83,5.21,2.94,2.94,2.94
-4.75,-6.83,5.18,1.61,1.61,1.61
-4.82,-6.88,5.19,1.61,1.61,1.61
-4.84,-6.91,5.19,2.66,2.66,2.73
-4.84,-6.88,5.21,2.66,2.73,2.73
-4.88,-6.88,5.18,3.01,3.01,3.01
-4.86,-6.87,5.22,2.10,2.10,2.10
-4.86,-6.84,5.23,1.05,1.05,1.05
-4.89,-6.71,5.22,1.47,0.98,-1.05
-4.84,-6.89,5.11,2.94,2.45,2.45
-4.80,-6.87,5.24,0.49,0.49,0.49
-4.80,-6.88,5.17,2.66,2.66,2.94
-4.79,-6.83,5.19,1.75,1.75,1.75
-4.80,-6.88,5.21,2.73,2.73,2.73
-4.82,-6.88,5.21,1.75,1.75,1.96
-4.84,-6.85,5.20,1.89,1.89,1.89
-4.86,-6.86,5.20,1.61,1.61,1.61
-4.82,-6.87,5.23,1.61,1.61,1.61
-4.83,-6.86,5.18,1.05,1.05,1.05
-4.81,-6.87,5.19,1.89,1.89,1.89
-4.82,-6.88,5.20,1.75,1.75,1.75
-4.84,-6.89,5.18,2.38,2.52,2.52
-4.85,-6.85,5.19,2.17,2.17,2.17
-4.83,-6.86,5.18,1.68,1.68,1.68
-4.83,-6.84,5.20,1.68,1.68,1.68
-4.85,-6.87,5.19,1.47,1.40,1.40
-4.84,-6.87,5.20,1.61,1.61,1.61
-4.82,-6.87,5.17,1.89,1.89,1.89
-4.80,-6.87,5.19,2.03,2.03,2.03
-4.85,-6.87,5.19,2.03,2.03,1.89
-4.84,-6.88,5.22,1.61,1.68,1.68
-4.83,-6.87,5.20,1.68,1.68,1.68
-4.81,-6.87,5.18,1.68,1.68,1.68
-4.83,-6.87,5.18,1.82,1.82,1.89
-4.82,-6.88,5.21,1.89,1.89,1.96
-4.81,-6.88,5.19,1.89,1.89,1.89
-4.83,-6.88,5.18,1.96,1.82,1.82
-4.83,-6.85,5.19,1.89,1.89,1.89
-4.83,-6.88,5.20,1.82,1.82,1.82
-4.82,-6.86,5.21,1.75,1.75,1.75
-4.83,-6.87,5.18,1.61,1.54,1.54
-4.82,-6.87,5.21,1.68,1.75,1.75
-4.82,-6.87,5.18,1.75,1.75,1.75
-4.82,-6.87,5.20,1.82,1.89,1.89
-4.81,-6.86,5.20,1.96,1.82,1.82
-4.82,-6.89,5.19,1.96,1.96,2.03
-4.83,-6.87,5.21,1.89,1.89,1.82
-4.82,-6.87,5.19,1.96,1.96,1.68
-4.84,-6.86,5.18,1.75,1.75,1.75
-4.81,-6.86,5.18,1.82,1.82,1.82
-4.84,-6.89,5.21,1.61,1.75,1.75
-4.81,-6.87,5.19,1.82,1.82,1.89
-4.83,-6.85,5.21,1.96,1.96,1.89
-4.83,-6.87,5.21,2.03,2.03,2.03
-4.83,-6.87,5.22,1.82,1.82,1.82
-4.83,-6.88,5.19,1.82,1.82,1.82
-4.82,-6.88,5.18,1.75,1.75,1.82
-4.82,-6.87,5.20,1.68,1.68,1.68
-4.84,-6.88,5.21,1.82,1.82,1.82
-4.81,-6.86,5.22,1.75,1.75,1.75
-4.80,-6.87,5.18,1.82,1.82,1.82
-4.80,-6.88,5.18,1.89,1.89,1.89
-4.83,-6.88,5.20,1.96,1.96,1.96
-4.82,-6.88,5.19,1.75,1.75,1.75
-4.81,-6.87,5.20,1.75,1.82,1.82
-4.82,-6.86,5.19,1.89,1.89,1.68
-4.80,-6.89,5.18,1.82,1.82,1.68
-4.83,-6.85,5.21,1.89,1.89,1.82
-4.81,-6.88,5.20,1.89,1.89,1.96
-4.80,-6.87,5.20,1.75,1.75,1.82
-4.83,-6.88,5.21,1.89,1.89,1.75
-4.81,-6.87,5.19,1.89,1.89,1.89
-4.83,-6.90,5.18,1.89,1.89,1.68
-4.81,-6.89,5.19,1.75,1.75,1.82
-4.82,-6.87,5.20,1.82,1.82,1.82
-4.81,-6.88,5.21,1.75,1.75,1.75
-4.82,-6.88,5.20,1.96,1.96,1.96
-4.82,-6.89,5.20,1.89,1.82,1.82
-4.83,-6.87,5.20,1.75,1.75,1.75
-4.81,-6.89,5.18,1.75,1.75,1.75
-4.81,-6.88,5.20,1.82,1.89,1.89
-4.82,-6.87,5.20,1.82,1.82,1.89
-4.82,-6.88,5.19,1.68,1.68,1.68
-4.81,-6.87,5.21,1.89,1.89,1.89
-4.81,-6.87,5.17,1.89,1.89,1.89
-4.82,-6.86,5.19,1.89,1.89,1.89
-4.83,-6.88,5.18,1.75,1.82,1.82
-4.82,-6.88,5.20,1.75,1.89,1.89
-4.83,-6.87,5.20,1.82,1.75,1.75
-4.81,-6.87,5.21,1.75,1.61,1.61
-4.81,-6.88,5.20,1.89,1.89,1.82
-4.80,-6.87,5.22,1.96,1.89,1.89
-4.84,-6.87,5.19,1.89,1.89,1.89
-4.81,-6.85,5.19,1.82,1.82,1.82
-4.82,-6.89,5.21,1.89,1.75,1.75
-4.82,-6.88,5.20,1.96,1.82,1.82
-4.80,-6.87,5.19,1.75,1.75,1.75
-4.82,-6.88,5.20,1.75,1.75,1.61
-4.82,-6.88,5.18,1.75,1.75,1.75
-4.81,-6.88,5.20,1.75,1.75,1.75
-4.84,-6.86,5.20,1.82,1.82,1.82
-4.81,-6.90,5.18,1.89,1.89,1.89
-4.81,-6.88,5.18,1.75,1.75,1.96
-4.82,-6.89,5.19,1.89,1.89,1.89
-4.82,-6.86,5.20,1.82,1.82,1.82
-4.80,-6.89,5.19,1.89,1.75,1.75
-4.83,-6.89,5.21,1.82,1.68,1.89
-4.80,-6.88,5.21,1.75,1.75,1.75
-4.82,-6.89,5.18,1.82,1.82,1.75
-4.81,-6.89,5.19,1.96,1.96,1.96
-4.81,-6.91,5.22,1.75,1.68,1.68
-4.79,-6.88,5.19,1.75,1.75,1.75
-4.82,-6.87,5.20,1.68,1.68,1.68
-2.35,-9.52,4.84,-9.73,-31.36,-31.36
-5.28,-7.20,6.19,34.02,42.35,42.35
-7.86,-4.24,5.50,43.68,21.28,21.28
-4.43,-6.22,5.13,63.56,63.56,63.56
-5.64,-5.18,5.64,35.56,29.82,29.82
-6.48,-6.51,5.97,-16.94,-22.82,-22.82
-6.03,-6.20,5.41,-52.78,-52.78,-52.78
-5.77,-5.76,6.03,-84.49,-89.18,-94.78
-4.63,-6.96,4.80,-69.09,-67.48,-67.48
-4.10,-7.46,4.95,-38.64,-30.80,-30.80
-3.85,-7.64,4.40,1.82,1.82,10.36
-3.84,-7.29,4.27,23.59,29.89,29.89
-3.98,-7.26,5.61,10.57,2.03,-0.35
-3.36,-7.42,5.20,-35.28,-35.28,-9.03
-3.41,-6.86,6.39,-28.07,-34.23,-34.23
-4.09,-7.61,4.15,-22.33,-3.01,3.99
-4.47,-7.97,5.13,25.76,25.76,26.46
-4.23,-7.30,4.94,39.69,39.69,40.11
-4.49,-6.84,5.51,28.21,18.55,16.45
-4.62,-6.81,5.20,6.44,6.44,3.50
-5.00,-7.14,5.50,-10.43,-10.50,-10.50
-4.52,-6.84,4.60,-2.73,-0.42,-0.42
-4.40,-7.48,4.98,-13.16,-13.16,-11.41
-4.68,-7.63,5.20,4.83,4.83,4.83
-4.76,-7.49,5.11,5.60,7.07,7.07
-4.25,-6.81,5.23,9.03,5.32,-3.08
-3.95,-7.00,4.89,-15.75,-15.82,-15.82
-4.30,-7.45,5.16,-14.63,-14.63,-14.63
-3.96,-7.25,4.87,10.57,11.06,11.06
-4.02,-7.15,5.03,12.95,12.25,12.25
-4.42,-7.30,5.09,9.66,9.66,9.66
-4.47,-7.14,5.22,6.02,6.02,6.02
-4.33,-7.08,5.02,-0.84,-0.91,-0.91
-4.56,-7.34,5.11,-1.96,-1.96,-1.96
-4.68,-7.51,5.04,8.40,8.40,8.40
-4.63,-7.22,5.12,9.31,9.31,9.31
-4.53,-7.01,5.18,4.20,2.87,2.87
-4.59,-7.11,5.15,-5.39,-5.95,-5.95
-4.62,-8.51,5.12,-6.93,-6.93,-7.35
-4.31,-7.22,4.98,-4.55,-3.99,-3.99
-4.25,-7.31,4.98,0.21,0.21,0.98
-4.30,-7.31,5.06,3.92,4.06,4.06
-4.28,-7.19,5.07,4.34,4.34,4.27
-4.15,-7.09,5.07,-0.14,-0.14,-0.70
-4.19,-7.21,4.99,-1.82,-1.82,-1.68
-4.34,-7.40,5.02,1.26,1.96,1.96
-4.33,-7.35,5.04,7.21,7.63,7.63
-4.34,-7.25,5.06,8.61,8.61,8.47
-4.54,-7.20,5.15,2.24,2.24,2.24
-4.49,-7.18,5.12,-0.63,-1.12,-1.12
-4.51,-7.30,5.08,-1.33,-1.19,-1.19
-4.51,-7.33,5.08,1.05,1.40,1.40
-4.47,-7.26,5.08,3.22,3.22,2.87
-4.37,-7.17,5.11,-0.28,-0.28,0.70
-4.27,-7.25,5.03,-0.56,-0.56,0.07
-4.24,-7.29,5.02,2.87,2.87,2.80
-4.27,-7.29,5.01,5.04,5.04,5.39
-4.30,-7.23,5.08,5.25,5.25,4.76
-4.35,-7.19,5.09,2.87,2.87,2.87
-4.38,-7.23,5.03,0.42,1.75,1.75
-4.42,-7.28,5.15,2.17,2.17,2.17
-4.47,-7.30,5.06,4.06,4.06,4.34
-4.47,-7.25,5.12,3.43,3.43,3.50
-4.48,-7.21,5.10,1.96,1.82,1.82
-4.47,-7.21,5.14,0.14,0.14,-0.35
-4.42,-7.24,5.06,-1.54,-1.54,-1.54
-4.37,-7.27,5.06,-0.84,-0.84,-0.84
-4.34,-7.26,5.02,0.91,1.26,1.26
-4.31,-7.25,5.04,2.59,2.59,2.59
-4.30,-7.22,5.07,2.24,2.24,2.24
-4.27,-7.25,5.07,0.98,1.12,1.12
-4.32,-7.25,5.04,1.19,1.19,1.19
-4.34,-7.28,5.04,2.31,2.45,3.08
-4.36,-7.25,5.05,3.92,3.92,3.85
-4.38,-7.29,5.08,4.20,4.20,4.20
-4.43,-7.24,5.11,3.29,3.29,3.01
-4.45,-7.23,5.10,1.54,1.54,1.54
-4.43,-7.25,5.07,0.77,0.70,0.70
-4.42,-7.26,5.08,0.84,0.84,0.98
-4.41,-7.27,5.09,1.68,1.75,1.75
-4.38,-7.25,5.05,1.54,1.54,1.47
-4.36,-7.21,5.06,0.91,0.77,0.77
-4.34,-7.23,5.05,0.28,0.28,0.14
-4.33,-7.27,5.06,0.70,0.70,0.77
-4.31,-7.28,5.04,1.75,1.75,1.75
-4.34,-7.26,5.06,3.43,3.36,3.36
-4.36,-7.25,5.07,2.80,2.80,2.80
-4.37,-7.24,5.06,2.03,1.82,1.82
-4.40,-7.25,5.07,2.38,2.17,2.17
-4.43,-7.24,5.10,1.47,1.26,1.26
-4.44,-7.40,5.14,0.07,-0.21,-0.21
-4.37,-7.25,5.02,0.49,0.49,0.63
-4.33,-7.16,5.05,0.49,0.77,0.77
-4.31,-7.20,5.03,2.31,2.31,2.17
-4.34,-7.32,5.08,1.68,1.61,1.61
-4.35,-7.33,5.10,2.24,2.24,2.24
-4.33,-7.21,5.07,1.54,1.82,1.89
-4.31,-7.19,5.03,2.52,2.38,2.31
-4.36,-7.29,5.02,2.59,3.01,3.08
-4.43,-7.34,5.09,3.43,3.43,3.22
-4.39,-7.26,5.11,2.87,2.87,2.87
-4.36,-7.16,5.09,1.89,1.89,1.54
-5.76,-6.87,5.23,34.72,34.72,37.45
-4.74,-6.73,6.51,-21.28,-21.28,-8.82
-3.52,-6.34,2.08,-18.41,-18.41,-18.41
-4.31,-6.73,6.41,-38.08,-38.08,-56.77
-3.55,-7.97,3.19,5.04,5.04,5.04
-3.77,-7.97,5.92,-14.98,-14.98,-14.84
-2.45,-7.31,3.77,33.74,33.74,33.74
-3.54,-7.26,4.32,8.68,8.68,8.68
-4.19,-7.89,5.50,28.98,28.98,26.88
-4.04,-7.23,4.70,21.35,21.35,21.35
-4.31,-7.07,5.35,5.88,5.88,5.88
-4.65,-7.39,4.87,10.92,16.17,16.17
-4.52,-7.54,4.40,21.14,21.14,21.14
-4.95,-6.98,6.74,0.28,-11.69,-11.69
-4.80,-7.68,4.81,-10.01,-5.60,-5.60
-3.75,-7.35,5.30,-8.26,-8.26,-7.91
-4.25,-7.15,4.71,-19.18,-18.55,-18.55
-3.55,-7.28,5.19,-14.00,-14.00,-14.84
-3.62,-7.37,4.72,-9.73,-9.73,-9.73
-2.54,-7.54,4.70,3.43,3.43,5.67
-3.24,-7.40,4.68,14.84,14.84,14.84
-3.57,-7.30,4.84,13.65,13.65,13.65
-4.09,-7.38,5.19,11.97,11.97,10.50
-4.23,-7.48,4.99,15.61,15.61,15.61
-4.29,-7.10,5.18,6.86,6.86,6.86
-4.53,-7.56,5.03,7.49,8.05,8.05
-4.59,-7.39,5.21,10.78,10.78,9.94
-4.52,-7.52,5.05,4.13,3.01,3.01
-4.74,-7.39,5.25,-2.80,-2.80,-6.86
-4.43,-7.30,4.86,1.26,-0.42,0.56
-4.53,-6.97,5.04,-3.64,-3.64,-5.60
-4.28,-7.23,4.91,-8.54,-8.54,-8.54
-4.31,-7.76,5.10,-4.83,-4.83,-4.83
-3.99,-7.06,4.91,7.07,7.07,7.07
-4.13,-7.50,5.35,-2.45,-2.45,-2.45
-4.55,-7.46,5.53,10.78,7.56,7.56
-4.16,-7.19,4.89,0.00,1.61,1.61
-4.31,-7.24,5.09,-0.42,-1.33,-1.33
-4.43,-7.48,5.15,-4.41,-4.41,-4.41
-4.33,-7.80,4.84,7.91,7.91,7.91
-4.33,-7.37,5.04,-3.78,-2.80,-2.80
-4.17,-7.53,5.04,5.39,5.60,5.60
-4.07,-7.25,4.89,-1.33,-1.33,-0.63
-4.39,-7.41,5.15,5.95,5.95,5.39
-4.18,-7.18,5.11,4.41,4.41,2.38
-4.39,-7.44,5.05,1.82,1.82,2.66
-4.35,-7.33,5.18,-0.70,-1.19,-1.54
-4.39,-7.49,5.01,-1.40,-1.40,-0.28
-4.14,-7.26,5.11,-2.10,-2.10,-2.10
-4.28,-7.49,5.02,-4.62,-4.62,-4.62
-3.81,-7.40,5.05,-5.18,-5.18,-5.18
-4.05,-7.69,4.90,-1.33,-1.33,-1.33
-3.72,-7.26,5.03,8.47,6.44,6.44
-3.96,-7.56,4.75,7.21,7.21,9.87
-4.04,-7.29,5.17,6.58,6.58,5.67
-3.91,-7.69,4.89,2.52,5.04,5.04
-4.30,-7.42,5.25,-1.19,-1.19,-1.82
-4.22,-7.56,4.89,7.98,7.98,7.35
-4.00,-7.74,5.13,-2.80,-2.80,-3.15
-4.07,-7.07,5.34,1.12,1.12,1.12
-4.05,-6.59,4.60,0.07,0.07,0.07
-4.18,-7.70,5.60,-1.61,-5.25,-5.25
-4.30,-7.18,4.58,36.89,36.89,36.89
-4.82,-7.48,5.16,29.82,29.82,29.82
-4.89,-6.50,5.82,10.29,10.29,10.29
-4.95,-7.13,4.65,-5.88,-5.88,-5.88
-5.08,-7.21,5.88,-21.84,-21.84,-21.84
-4.58,-7.45,4.90,-15.96,-15.96,-15.96
-4.44,-7.26,5.07,-7.35,-7.35,-9.03
-3.81,-7.37,4.82,-1.75,-1.75,-1.75
-3.60,-7.45,5.04,3.85,3.85,3.85
-4.43,-7.13,5.39,7.63,7.63,0.42
-4.00,-6.88,5.23,3.92,3.92,-0.14
-4.13,-7.31,4.74,-1.47,-1.47,-1.47
-4.29,-6.97,5.02,-0.35,-0.35,-0.35
-4.20,-7.54,5.21,-1.61,-1.75,-1.75
-4.59,-7.60,5.15,4.76,4.76,4.76
-4.27,-7.01,5.10,7.84,-2.66,-2.66
-3.91,-7.34,4.77,-4.27,-4.27,-4.27
-4.15,-7.59,5.07,-3.08,-2.31,-2.31
-4.33,-7.54,4.96,4.62,4.62,4.62
-4.34,-7.34,5.02,10.92,10.92,10.92
-4.22,-7.10,5.12,4.62,4.62,4.62
-4.36,-7.27,5.12,-0.98,-0.98,-0.98
-4.43,-7.30,5.16,-3.29,-3.29,-3.29
-4.28,-7.33,4.97,-2.10,-1.61,-1.61
-4.25,-7.37,5.03,0.63,0.63,0.63
-4.30,-7.47,5.03,6.65,6.65,6.65
-4.29,-7.30,5.10,5.67,4.90,4.90
-4.20,-7.15,5.11,-17.64,-0.49,-0.49
-4.22,-7.26,5.06,-3.43,-3.43,-3.43
-4.28,-7.43,5.03,-1.75,0.21,0.21
-4.22,-7.40,5.00,4.48,4.48,4.48
-4.21,-7.33,5.02,5.67,5.60,5.60
-4.30,-7.29,5.10,4.76,4.20,4.20
-4.32,-7.28,5.08,1.96,1.68,1.68
-4.29,-7.29,5.08,-0.77,-0.77,-0.77
-4.28,-7.37,5.05,-0.63,-0.63,-0.63
-4.33,-7.40,5.05,3.50,3.50,3.50
-4.30,-7.36,5.06,4.90,4.90,4.90
-4.26,-7.22,5.09,2.66,2.66,2.66
-4.29,-7.26,5.10,-0.77,-0.91,-0.91
-4.30,-7.33,5.08,-0.98,-0.98,-0.98
-4.26,-7.35,5.01,0.35,0.70,0.70
-4.22,-7.35,5.02,2.45,2.45,2.45
-4.25,-7.37,5.05,4.20,4.27,4.27
-4.25,-7.29,5.07,3.85,3.85,3.85
-4.27,-7.27,5.07,1.12,0.70,0.70
-4.28,-7.32,5.07,-0.07,-0.21,-0.21
-4.29,-7.39,5.06,1.19,1.47,1.47
-4.28,-7.35,5.03,3.36,3.36,3.36
-4.29,-7.31,5.08,3.50,3.50,3.50
-4.31,-7.30,5.09,2.31,2.31,2.03
-4.32,-7.29,5.09,0.63,0.63,0.49
-4.30,-7.32,5.06,-0.35,-0.35,-0.35
-4.24,-7.32,5.04,0.84,0.84,0.84
-4.24,-7.37,5.06,2.17,2.17,3.01
-4.24,-7.34,5.06,3.50,3.50,3.50
-4.23,-7.28,5.06,2.24,2.24,2.24
-4.28,-7.30,5.07,1.19,0.98,0.98
-4.26,-7.32,5.06,1.05,1.05,1.05
-4.26,-7.35,5.07,1.82,2.17,2.17
-4.27,-7.32,5.06,3.29,3.29,3.29
-4.27,-7.33,5.04,3.29,3.22,3.22
-4.35,-7.15,5.08,2.59,2.59,1.54
-4.31,-7.26,5.07,0.21,0.21,0.21
-4.31,-7.31,5.06,0.63,0.56,0.56
-4.29,-7.33,5.06,1.05,1.68,1.68
-4.26,-7.29,5.03,2.45,2.45,2.45
-4.25,-7.32,5.04,2.24,2.10,2.10
-4.28,-7.32,5.07,1.47,1.47,1.47
-4.24,-7.34,5.02,1.75,1.75,2.17
-4.26,-7.34,5.03,3.15,3.15,3.15
-4.27,-7.32,5.07,2.94,2.94,2.94
-4.26,-7.28,5.04,1.89,1.61,1.61
-4.28,-7.30,5.06,1.05,1.05,1.05
-4.30,-7.31,5.03,1.54,1.54,1.54
-4.29,-7.34,5.07,1.96,1.96,1.96
-4.27,-7.34,5.04,2.24,2.24,2.24
-4.29,-7.30,5.06,2.03,2.03,2.03
-4.27,-7.30,5.04,1.68,1.40,1.40
-4.28,-7.30,5.06,1.12,1.12,1.12
-4.26,-7.35,5.05,1.26,1.47,1.47
-4.26,-7.34,5.07,2.10,2.10,2.10
-4.25,-7.33,5.06,2.66,2.52,2.52
-4.29,-7.31,5.04,2.31,2.31,2.31
-4.29,-7.32,5.06,1.75,1.75,1.75
-4.30,-7.32,5.05,1.47,1.54,1.54
-4.26,-7.34,5.07,1.82,1.82,1.68
-4.29,-7.34,5.06,1.96,1.96,2.03
-4.27,-7.34,5.06,2.31,2.31,2.24
-4.28,-7.34,5.06,1.89,1.89,1.75
-4.28,-7.31,5.05,1.54,1.47,1.47
-4.28,-7.33,5.06,1.26,1.26,1.19
-4.28,-7.35,5.05,1.47,1.47,1.47
-4.28,-7.33,5.07,1.96,1.96,2.03
-4.25,-7.34,5.04,2.17,2.17,2.03
-4.26,-7.34,5.06,2.10,2.10,1.89
-4.28,-7.34,5.06,1.75,1.75,1.61
-4.27,-7.35,5.08,1.75,1.75,1.75
-4.28,-7.34,5.07,2.10,2.10,1.96
-4.29,-7.32,5.07,2.31,2.17,2.17
-4.26,-7.30,5.06,1.89,1.89,1.82
-4.27,-7.34,5.06,1.82,1.82,1.82
-4.25,-7.32,5.07,1.89,1.89,1.96
-4.25,-7.31,5.06,1.96,1.96,1.96
-4.29,-7.31,5.06,2.10,2.10,2.10
-4.27,-7.33,5.06,1.47,1.47,1.47
-4.24,-7.33,5.06,1.61,1.61,1.54
-4.27,-7.33,5.04,1.96,1.96,1.96
-4.27,-7.31,5.04,2.10,2.10,1.96
-4.25,-7.32,5.06,2.10,2.10,2.10
-4.27,-7.33,5.05,1.89,1.89,1.96
-4.28,-7.32,5.07,1.61,1.61,1.61
-4.29,-7.31,5.03,1.82,1.82,1.82
-4.26,-7.31,5.04,1.75,1.75,1.75
-4.28,-7.33,5.05,2.03,2.03,1.89
-4.28,-7.33,5.06,2.24,2.24,2.24
-4.27,-7.31,5.08,1.68,1.68,1.68
-4.24,-7.32,5.03,1.61,1.61,1.61
-4.29,-7.34,5.06,1.68,1.68,1.68
-4.27,-7.33,5.05,1.96,1.96,1.96
-4.25,-7.33,5.07,1.96,1.96,1.96
-4.27,-7.33,5.05,1.89,1.75,1.75
-4.27,-7.32,5.06,1.82,1.82,1.75
-4.29,-7.33,5.06,1.82,1.89,1.89
-4.27,-7.33,5.06,1.75,1.75,1.61
-4.25,-7.33,5.05,1.89,1.96,1.96
-4.27,-7.34,5.05,1.96,1.96,1.96
-4.26,-7.32,5.04,1.96,1.96,1.82
-4.27,-7.32,5.07,1.82,1.82,1.68
-4.27,-7.32,5.06,1.75,1.75,1.82
-4.27,-7.35,5.05,1.96,1.96,1.75
-4.26,-7.35,5.07,1.75,1.61,1.61
-4.26,-7.33,5.05,1.89,1.89,1.89
-4.25,-7.29,5.04,1.89,1.96,1.96
-4.29,-7.31,5.09,1.89,1.89,1.89
-4.28,-7.32,5.06,1.82,1.68,1.68
-4.27,-7.33,5.06,1.82,1.68,1.89
-4.27,-7.33,5.04,1.75,2.03,1.96
-4.29,-7.33,5.05,1.96,2.31,2.31
-4.26,-7.34,5.06,1.68,1.68,1.68
-4.26,-7.35,5.08,1.47,1.61,1.61
-4.26,-7.37,5.06,2.24,1.54,1.54
-4.28,-7.31,5.03,1.54,1.05,1.05
-4.28,-7.32,5.06,2.03,1.96,2.10
-4.26,-7.32,5.05,1.96,1.96,1.96
-4.26,-7.31,5.05,1.89,1.89,1.89
-4.28,-7.31,5.02,1.82,1.82,1.82
-4.27,-7.33,5.07,1.89,1.89,1.89
-4.27,-7.35,5.05,1.68,1.68,1.96
-4.31,-7.34,5.05,1.75,1.75,1.75
-4.26,-7.32,5.06,2.03,1.96,1.96
-4.27,-7.31,5.09,1.68,1.68,1.68
-4.25,-7.32,5.06,1.89,2.03,2.03
-4.25,-7.34,5.08,1.82,1.82,1.82
-4.25,-7.32,5.04,1.82,1.82,1.82
-4.28,-7.34,5.05,1.54,1.54,1.54
-4.25,-7.31,5.04,1.96,1.96,1.96
-4.28,-7.33,5.04,1.82,1.82,2.17
-4.24,-7.32,5.07,1.82,1.96,1.96
-4.24,-7.31,5.06,1.89,1.89,1.89
-4.26,-7.31,5.06,2.17,2.03,1.89
-4.26,-7.33,5.04,1.89,2.31,2.31
-4.27,-7.33,5.07,1.47,1.40,1.40
-4.28,-7.31,5.06,1.89,1.96,1.96
-4.27,-7.33,5.05,1.82,1.82,1.82
-4.26,-7.34,5.05,1.61,1.61,1.61
-4.25,-7.30,5.05,1.68,1.68,1.68
-4.24,-7.33,5.05,1.61,1.82,1.82
-4.26,-7.34,5.06,1.96,1.89,1.89
-4.26,-7.33,5.06,1.68,1.68,1.68
-4.26,-7.33,5.06,2.03,2.03,2.03
-4.27,-7.33,5.08,1.89,1.89,1.96
-4.29,-7.35,5.04,1.89,1.89,1.96
-4.26,-7.34,5.04,1.75,1.75,1.75
-4.26,-7.34,5.08,1.75,1.89,1.89
-4.25,-7.32,5.06,1.89,1.89,2.10
-4.26,-7.34,5.05,1.89,1.89,1.89
-4.26,-7.31,5.04,1.82,1.82,1.82
-4.25,-7.32,5.05,1.82,1.82,1.82
-4.27,-7.32,5.06,1.82,1.82,1.82